sender,sender_type,sender_id,timestamp,meta,,Number,ScalingChecknr,block_main,block_number,code,colX,colY,color_angle_abs_deviation,color_angle_deviation,color_angle_study,color_angle_test,color_offset,comp_alone,comp_computer,comp_duration,comp_instructions,comp_mobile,comp_programs,consent_quest,correct_response,counterbalancing,diameter,dpcm,dpi,duration,ended_on,hue_prom_v1,hue_prom_v2,hue_prom_v3,hue_prom_v4,hue_prom_v5,hue_prom_v6,hue_v1,hue_v2,hue_v3,hue_v4,hue_v5,hue_v6,image,image_v1,image_v2,image_v3,image_v4,image_v5,image_v6,imgHeight,imgPosX,imgPosY,imgShift,iteration,participant_ID,practice,radius,radius1,radius2,radius3,repetition,response,response_action,scale,scaling_check,scaling_quest,scaling_rectheight,scaling_rectwidth,scaling_rectx,scaling_recty,set_counter,stimulus_seq,stimulus_type,time_commit,time_end,time_render,time_run,time_show,time_switch,trial_number,trial_seq,trial_type,url,vpn,vpn_id,
consent_subject_n,html.Page,0_0,2024-02-22T14:50:15.846Z,"{""labjs_version"":""20.2.4"",""labjs_build"":{""flavor"":""development"",""commit"":""f5b4a49f956347addd546a832a3327688c2c0fef""},""location"":""https://labjs.felixhenninger.com/api/labjs_preview/index.html"",""userAgent"":""Mozilla/5.0 (Macintosh; Intel Mac OS X 10.15; rv:122.0) Gecko/20100101 Firefox/122.0"",""platform"":""MacIntel"",""language"":""de"",""locale"":""de"",""timeZone"":""Europe/Zurich"",""timezoneOffset"":-60,""screen_width"":1440,""screen_height"":900,""scroll_width"":1357,""scroll_height"":627,""window_innerWidth"":1357,""window_innerHeight"":675,""devicePixelRatio"":2}",,,,,,,,,,,,,,,,,,,,1,,,,,,964.54,form submission,,,,,,,,,,,,,,,,,,,,,,,,,222222,,,,,,,,,,,,,,,,,,,1245,1243,261.78,262,278.46,1278.46,,,,{},,,
end,html.Screen,0_1,2024-02-22T14:50:15.850Z,,,,,,,,,,,,,,,,,,,,,,,,,,,NaN,skipped,,,,,,,,,,,,,,,,,,,,,,,,,222222,,,,,,,,,,,,,,,,,,,1248,1243,,1248,,1278.46,,,,,,,
browser_check,html.Screen,0_2,2024-02-22T14:50:15.850Z,,,,,,,,,,,,,,,,,,,,,,,,,,,NaN,skipped,,,,,,,,,,,,,,,,,,,,,,,,,222222,,,,,,,,,,,,,,,,,,,1248,1243,,1248,,1278.46,,,,,,,
instruction,html.Screen,0_3,2024-02-22T14:50:16.563Z,,,,,,,,,,,,,,,,,,,,,,,,,,,682.54,done,,,,,,,,,,,,,,,,,,,,,,,,,222222,,,,,,,,,,,,,,,,,,,1961,1961,1245.12,1248,1278.46,1978.46,,,,,,,
subject_info,html.Form,0_4,2024-02-22T14:50:19.927Z,,,,,,,asdasd,,,,,,,,,,,,,,,,,,,,3347.54,form submission,,,,,,,,,,,,,,,,,,,,,,,,,222222,,,,,,,,,,,,,,,,,,,5326,5326,1961.48,1961,1978.46,5345.14,,,,,222222,,
ORSEE_Check,html.Page,0_5,2024-02-22T14:50:19.929Z,,,,,,,,,,,,,,,,,,,,,,,,,,,NaN,skipped,,,,,,,,,,,,,,,,,,,,,,,,,222222,,,,,,,,,,,,,,,,,,,5328,5326,,5328,,5345.14,,,,,,222222,
compliance_quest_pre,html.Form,0_6,2024-02-22T14:50:21.811Z,,,,,,,,,,,,,,,TRUE,TRUE,TRUE,TRUE,TRUE,TRUE,,,,,,,1863.8600000000000,form submission,,,,,,,,,,,,,,,,,,,,,,,,,222222,,,,,,,,,,,,,,,,,,,7209,7209,5328.48,5328,5345.14,7228.5,,,,,,,
Scaling_instructions,html.Page,0_7_0,2024-02-22T14:50:22.811Z,,,,,,,,,,,,,,,,,,,,,,,,,,,980.5,form submission,,,,,,,,,,,,,,,,,,,,,,,,,222222,,,,,,,,,,,,,,,,,,,8209,8209,7211.84,7209,7228.5,8228.36,,,,,,,
Scaling_form,html.Form,0_7_1_0_0_0,2024-02-22T14:50:24.068Z,,,,1,,,,,,,,,,,,,,,,,,,,,59.37694656514680,150.8209681298680,1237.6400000000000,form submission,,,,,,,,,,,,,,,,,,,,,,,,,222222,,,,,,,,,100,,I have successfully resized the rectangle to the size of a credit card.,,,,,,,,9466,9466,8210.96,8211,8228.36,9478.52,,,,,,,
Scaling_check_form,html.Form,0_7_1_0_0_1,2024-02-22T14:50:24.992Z,,,,1,,,,,,,,,,,,,,,,,,,,,,,910.4800000000000,form submission,,,,,,,,,,,,,,,,,,,,,,,,,222222,,,,,,,,,,yes,,320.4945572759700,509.02076743830600,254.51038371915300,160.2472786379850,,,,10391,10389,9461.86,9467,9478.52,10428.52,,,,,,,
Scaling_end,html.Screen,0_7_1_0_0_2,2024-02-22T14:50:24.994Z,,,,1,,,,,,,,,,,,,,,,,,,,,,,NaN,skipped,,,,,,,,,,,,,,,,,,,,,,,,,222222,,,,,,,,,,,,,,,,,,,10393,10389,,10393,,10428.52,,,,,,,
Scaling_sequence_2,flow.Sequence,0_7_1_0_0,2024-02-22T14:50:24.995Z,,,,1,,,,,,,,,,,,,,,,,,,,,,,2160.6400000000000,completion,,,,,,,,,,,,,,,,,,,,,,,,,222222,,,,,,,,,,,,,,,,,,,10393,10389,8210.96,8211,8228.36,10428.52,,,,,,,
Scaling_sequence_2,flow.Sequence,0_7_1_0_1,2024-02-22T14:50:24.997Z,,,,1,,,,,,,,,,,,,,,,,,,,,,,NaN,skipped,,,,,,,,,,,,,,,,,,,,,,,,,222222,,,,,,,,,,,,,,,,,,,10395,10389,,10395,,10428.52,,,,,,,
Scaling_sequence_2,flow.Sequence,0_7_1_0_2,2024-02-22T14:50:24.998Z,,,,1,,,,,,,,,,,,,,,,,,,,,,,NaN,skipped,,,,,,,,,,,,,,,,,,,,,,,,,222222,,,,,,,,,,,,,,,,,,,10396,10389,,10396,,10428.52,,,,,,,
Scaling_sequence_2,flow.Sequence,0_7_1_0_3,2024-02-22T14:50:24.999Z,,,,1,,,,,,,,,,,,,,,,,,,,,,,NaN,skipped,,,,,,,,,,,,,,,,,,,,,,,,,222222,,,,,,,,,,,,,,,,,,,10397,10389,,10397,,10428.52,,,,,,,
Scaling_sequence_2,flow.Sequence,0_7_1_0_4,2024-02-22T14:50:25.001Z,,,,1,,,,,,,,,,,,,,,,,,,,,,,NaN,skipped,,,,,,,,,,,,,,,,,,,,,,,,,222222,,,,,,,,,,,,,,,,,,,10399,10389,,10399,,10428.52,,,,,,,
Scaling_sequence_2,flow.Sequence,0_7_1_0_5,2024-02-22T14:50:25.002Z,,,,1,,,,,,,,,,,,,,,,,,,,,,,NaN,skipped,,,,,,,,,,,,,,,,,,,,,,,,,222222,,,,,,,,,,,,,,,,,,,10400,10389,,10400,,10428.52,,,,,,,
Scaling_sequence_2,flow.Sequence,0_7_1_0_6,2024-02-22T14:50:25.004Z,,,,1,,,,,,,,,,,,,,,,,,,,,,,NaN,skipped,,,,,,,,,,,,,,,,,,,,,,,,,222222,,,,,,,,,,,,,,,,,,,10403,10389,,10403,,10428.52,,,,,,,
Scaling_sequence_2,flow.Sequence,0_7_1_0_7,2024-02-22T14:50:25.006Z,,,,1,,,,,,,,,,,,,,,,,,,,,,,NaN,skipped,,,,,,,,,,,,,,,,,,,,,,,,,222222,,,,,,,,,,,,,,,,,,,10403,10389,,10403,,10428.52,,,,,,,
Scaling_sequence_2,flow.Sequence,0_7_1_0_8,2024-02-22T14:50:25.007Z,,,,1,,,,,,,,,,,,,,,,,,,,,,,NaN,skipped,,,,,,,,,,,,,,,,,,,,,,,,,222222,,,,,,,,,,,,,,,,,,,10405,10389,,10405,,10428.52,,,,,,,
Scaling_sequence_2,flow.Sequence,0_7_1_0_9,2024-02-22T14:50:25.008Z,,,,1,,,,,,,,,,,,,,,,,,,,,,,NaN,skipped,,,,,,,,,,,,,,,,,,,,,,,,,222222,,,,,,,,,,,,,,,,,,,10406,10389,,10406,,10428.52,,,,,,,
Scaling_sequence_2,flow.Sequence,0_7_1_0_10,2024-02-22T14:50:25.010Z,,,,1,,,,,,,,,,,,,,,,,,,,,,,NaN,skipped,,,,,,,,,,,,,,,,,,,,,,,,,222222,,,,,,,,,,,,,,,,,,,10407,10389,,10407,,10428.52,,,,,,,
Scaling_sequence_2,flow.Sequence,0_7_1_0_11,2024-02-22T14:50:25.011Z,,,,1,,,,,,,,,,,,,,,,,,,,,,,NaN,skipped,,,,,,,,,,,,,,,,,,,,,,,,,222222,,,,,,,,,,,,,,,,,,,10409,10389,,10409,,10428.52,,,,,,,
Scaling_sequence_2,flow.Sequence,0_7_1_0_12,2024-02-22T14:50:25.012Z,,,,1,,,,,,,,,,,,,,,,,,,,,,,NaN,skipped,,,,,,,,,,,,,,,,,,,,,,,,,222222,,,,,,,,,,,,,,,,,,,10410,10389,,10410,,10428.52,,,,,,,
Scaling_sequence_2,flow.Sequence,0_7_1_0_13,2024-02-22T14:50:25.013Z,,,,1,,,,,,,,,,,,,,,,,,,,,,,NaN,skipped,,,,,,,,,,,,,,,,,,,,,,,,,222222,,,,,,,,,,,,,,,,,,,10411,10389,,10411,,10428.52,,,,,,,
Scaling_sequence_2,flow.Sequence,0_7_1_0_14,2024-02-22T14:50:25.014Z,,,,1,,,,,,,,,,,,,,,,,,,,,,,NaN,skipped,,,,,,,,,,,,,,,,,,,,,,,,,222222,,,,,,,,,,,,,,,,,,,10412,10389,,10412,,10428.52,,,,,,,
Scaling_sequence_2,flow.Sequence,0_7_1_0_15,2024-02-22T14:50:25.015Z,,,,1,,,,,,,,,,,,,,,,,,,,,,,NaN,skipped,,,,,,,,,,,,,,,,,,,,,,,,,222222,,,,,,,,,,,,,,,,,,,10412,10389,,10412,,10428.52,,,,,,,
Scaling_sequence_2,flow.Sequence,0_7_1_0_16,2024-02-22T14:50:25.015Z,,,,1,,,,,,,,,,,,,,,,,,,,,,,NaN,skipped,,,,,,,,,,,,,,,,,,,,,,,,,222222,,,,,,,,,,,,,,,,,,,10414,10389,,10414,,10428.52,,,,,,,
Scaling_sequence_2,flow.Sequence,0_7_1_0_17,2024-02-22T14:50:25.016Z,,,,1,,,,,,,,,,,,,,,,,,,,,,,NaN,skipped,,,,,,,,,,,,,,,,,,,,,,,,,222222,,,,,,,,,,,,,,,,,,,10415,10389,,10415,,10428.52,,,,,,,
Scaling_sequence_2,flow.Sequence,0_7_1_0_18,2024-02-22T14:50:25.018Z,,,,1,,,,,,,,,,,,,,,,,,,,,,,NaN,skipped,,,,,,,,,,,,,,,,,,,,,,,,,222222,,,,,,,,,,,,,,,,,,,10416,10389,,10416,,10428.52,,,,,,,
Scaling_sequence_2,flow.Sequence,0_7_1_0_19,2024-02-22T14:50:25.018Z,,,,1,,,,,,,,,,,,,,,,,,,,,,,NaN,skipped,,,,,,,,,,,,,,,,,,,,,,,,,222222,,,,,,,,,,,,,,,,,,,10416,10389,,10416,,10428.52,,,,,,,
Scaling_sequence_2,flow.Sequence,0_7_1_0_20,2024-02-22T14:50:25.019Z,,,,1,,,,,,,,,,,,,,,,,,,,,,,NaN,skipped,,,,,,,,,,,,,,,,,,,,,,,,,222222,,,,,,,,,,,,,,,,,,,10417,10389,,10417,,10428.52,,,,,,,
Scaling_sequence_2,flow.Sequence,0_7_1_0_21,2024-02-22T14:50:25.019Z,,,,1,,,,,,,,,,,,,,,,,,,,,,,NaN,skipped,,,,,,,,,,,,,,,,,,,,,,,,,222222,,,,,,,,,,,,,,,,,,,10418,10389,,10418,,10428.52,,,,,,,
Scaling_sequence_2,flow.Sequence,0_7_1_0_22,2024-02-22T14:50:25.020Z,,,,1,,,,,,,,,,,,,,,,,,,,,,,NaN,skipped,,,,,,,,,,,,,,,,,,,,,,,,,222222,,,,,,,,,,,,,,,,,,,10418,10389,,10418,,10428.52,,,,,,,
Scaling_sequence_2,flow.Sequence,0_7_1_0_23,2024-02-22T14:50:25.021Z,,,,1,,,,,,,,,,,,,,,,,,,,,,,NaN,skipped,,,,,,,,,,,,,,,,,,,,,,,,,222222,,,,,,,,,,,,,,,,,,,10419,10389,,10419,,10428.52,,,,,,,
Scaling_loop,flow.Loop,0_7_1_0,2024-02-22T14:50:25.021Z,,,,,,,,,,,,,,,,,,,,,,,,,,,2160.6400000000000,completion,,,,,,,,,,,,,,,,,,,,,,,,,222222,,,,,,,,,,,,,,,,,,,10419,10389,8210.96,8210,8228.36,10428.52,,,,,,,
Scaling_sequence,flow.Sequence,0_7_1,2024-02-22T14:50:25.021Z,,,,,,,,,,,,,,,,,,,,,,,,,,,2160.6400000000000,completion,,,,,,,,,,,,,,,,,,,,,,,,,222222,,,,,,,,,,,,,,,,,,,10419,10389,8210.96,8210,8228.36,10428.52,,,,,,,
First_scaling_sequence,flow.Sequence,0_7,2024-02-22T14:50:25.021Z,,,,,,,,,,,,,,,,,,,,,,,,,,,3160.5,completion,,,,,,,,,,,,,,,,,,,,,,,,,222222,,,,,,,,,,,,,,,,,,,10419,10389,7211.84,7209,7228.5,10428.52,,,,,,,
demographics_start_fullscreen,html.Page,0_8,2024-02-22T14:50:26.380Z,,,,,,,,,,,,,,,,,,,,,,,,,,,1349.4800000000000,abort by sequence,,,,,,,,,,,,,,,,,,,,,,,,,222222,,,,,,,,,,,,,,,,,,,11779,11778,10411.86,10419,10428.52,11795.2,,,,,,,
start_sequence,flow.Sequence,0,2024-02-22T14:50:26.381Z,,,,,,,,,,,,,,,,,,,,,,,,,,,11492.54,response,,,,,,,,,,,,,,,,,,,,,,,,,222222,,,,,,,,keypress(}),,,,,,,,,,,11779,11771,261.78,262,278.46,11795.2,,,,,,,
instruction_practice_1,html.Page,1_0_0,2024-02-22T14:50:26.919Z,,,,,,,,,,,,,,,,,,,,,,,2,,,,520.7999999999990,form submission,,,,,,,,,,,,,,,,,,,,,,,,,222222,,,,,,,,,,,,,,,,,,,12317,12316,11778.52,11779,11795.2,12328.54,,,,,,,
instruction_practice_2,html.Page,1_0_1,2024-02-22T14:50:27.548Z,,,,,,,,,,,,,,,,,,,,,,,2,,,,618.4599999999990,form submission,,,,,,,,,,,,,,,,,,,,,,,,,222222,,,,,,,,,,,,,,,,,,,12947,12947,12311.68,12317,12328.54,12961.86,,,,,,,
maintenance,canvas.Screen,1_0_2,2024-02-22T14:50:28.549Z,,,,,,,,,,,,,,,,,,,,,,,2,,,,1000.0200000000000,timeout,,,,,,,,,,,,,,,,,,,,,,,,,222222,,,,,,,,,,,,,,,,,,,13947,13945.2,12945.18,12947,12961.86,13961.88,,,,,,,
Encoding_screen_v1_animal,html.Screen,1_0_3_0_0_0_0_0,2024-02-22T14:50:30.548Z,,,,,1,0,,,,,,,,,,,,,,,,,2,509.02076743830600,,,2000,timeout,NA,NA,,,,,26,93,,,,,,https://memcog.fernuni.ch/studies/prm_wm_s1/images/pumpkin.png,https://memcog.fernuni.ch/studies/prm_wm_s1/images/mailbox01.png,,,,,178.15726860340700,NaN,NaN,165.4317494174490,,222222,yes,254.51038371915300,253.51038371915300,234.51038371915300,233.51038371915300,1,,,,,,,,,,0,1,ongoing,15947,15945.22,13945.2,13966,13961.88,15961.88,1,1,practice,,,,
Encoding_screen_v2_animal,html.Screen,1_0_3_0_0_0_0_1,2024-02-22T14:50:30.552Z,,,,,1,0,,,,,,,,,,,,,,,,,2,,,,NaN,skipped,NA,NA,,,,,26,93,,,,,,https://memcog.fernuni.ch/studies/prm_wm_s1/images/pumpkin.png,https://memcog.fernuni.ch/studies/prm_wm_s1/images/mailbox01.png,,,,,,,,,,222222,yes,,,,,1,,,,,,,,,,0,1,ongoing,15950,15945.22,,15949,,15961.88,1,1,practice,,,,
Encoding_screen_v3_hat,html.Screen,1_0_3_0_0_0_0_2,2024-02-22T14:50:30.552Z,,,,,1,0,,,,,,,,,,,,,,,,,2,,,,NaN,skipped,NA,NA,,,,,26,93,,,,,,https://memcog.fernuni.ch/studies/prm_wm_s1/images/pumpkin.png,https://memcog.fernuni.ch/studies/prm_wm_s1/images/mailbox01.png,,,,,,,,,,222222,yes,,,,,1,,,,,,,,,,0,1,ongoing,15951,15945.22,,15950,,15961.88,1,1,practice,,,,
Encoding_screen_v4_hat,html.Screen,1_0_3_0_0_0_0_3,2024-02-22T14:50:30.553Z,,,,,1,0,,,,,,,,,,,,,,,,,2,,,,NaN,skipped,NA,NA,,,,,26,93,,,,,,https://memcog.fernuni.ch/studies/prm_wm_s1/images/pumpkin.png,https://memcog.fernuni.ch/studies/prm_wm_s1/images/mailbox01.png,,,,,,,,,,222222,yes,,,,,1,,,,,,,,,,0,1,ongoing,15952,15945.22,,15952,,15961.88,1,1,practice,,,,
Encoding_screen_v5_instrument,html.Screen,1_0_3_0_0_0_0_4,2024-02-22T14:50:30.554Z,,,,,1,0,,,,,,,,,,,,,,,,,2,,,,NaN,skipped,NA,NA,,,,,26,93,,,,,,https://memcog.fernuni.ch/studies/prm_wm_s1/images/pumpkin.png,https://memcog.fernuni.ch/studies/prm_wm_s1/images/mailbox01.png,,,,,,,,,,222222,yes,,,,,1,,,,,,,,,,0,1,ongoing,15952,15945.22,,15952,,15961.88,1,1,practice,,,,
Encoding_screen_v6_instrument,html.Screen,1_0_3_0_0_0_0_5,2024-02-22T14:50:30.555Z,,,,,1,0,,,,,,,,,,,,,,,,,2,,,,NaN,skipped,NA,NA,,,,,26,93,,,,,,https://memcog.fernuni.ch/studies/prm_wm_s1/images/pumpkin.png,https://memcog.fernuni.ch/studies/prm_wm_s1/images/mailbox01.png,,,,,,,,,,222222,yes,,,,,1,,,,,,,,,,0,1,ongoing,15953,15945.22,,15953,,15961.88,1,1,practice,,,,
Encoding_sequence,flow.Sequence,1_0_3_0_0_0_0,2024-02-22T14:50:30.555Z,,,,,1,0,,,,,,,,,,,,,,,,,2,,,,1983.3400000000000,completion,NA,NA,,,,,26,93,,,,,,https://memcog.fernuni.ch/studies/prm_wm_s1/images/pumpkin.png,https://memcog.fernuni.ch/studies/prm_wm_s1/images/mailbox01.png,,,,,,,,,,222222,yes,,,,,1,,,,,,,,,,0,1,ongoing,15953,15945.22,13945.2,13965,13961.88,15961.88,1,1,practice,,,,
Encoding_loop,flow.Loop,1_0_3_0_0_0,2024-02-22T14:50:30.555Z,,,,,1,,,,,,,,,,,,,,,,,,2,,,,1983.3400000000000,completion,,,,,,,,,,,,,,,,,,,,,,,,,222222,yes,,,,,1,,,,,,,,,,0,,,15953,15945.22,13945.2,13965,13961.88,15961.88,,,,,,,
Location_recall,html.Screen,1_0_3_0_0_1_0_0,2024-02-22T14:50:30.556Z,,,,,1,0,,,,,,,,,,,,,,,,,2,,,,NaN,skipped,NA,NA,,,,,26,93,,,,,,https://memcog.fernuni.ch/studies/prm_wm_s1/images/pumpkin.png,https://memcog.fernuni.ch/studies/prm_wm_s1/images/mailbox01.png,,,,,,,,,,222222,yes,,,,,1,,,,,,,,,,0,1,ongoing,15954,15945.22,,15954,,15961.88,1,1,practice,,,,
Color_recall_v1_animal,html.Screen,1_0_3_0_0_1_0_1,2024-02-22T14:50:34.535Z,,,,,1,0,,-20.43174941744930,297.5682505825510,98.8102909373581,-98.8102909373581,26,124.8102909373580,30.882390353129700,,,,,,,,,2,,,,3969.120000000000,response,NA,NA,,,,,26,93,,,,,,https://memcog.fernuni.ch/studies/prm_wm_s1/images/pumpkin.png,https://memcog.fernuni.ch/studies/prm_wm_s1/images/mailbox01.png,,,,,,,,,,222222,yes,,,,,1,continue,click button,,,,,,,,0,1,ongoing,19933,19931,15945.22,15954,15961.88,19961.9,1,1,practice,,,,
Color_recall_v2_animal,html.Screen,1_0_3_0_0_1_0_2,2024-02-22T14:50:34.536Z,,,,,1,0,,,,,,,,,,,,,,,,,2,,,,NaN,skipped,NA,NA,,,,,26,93,,,,,,https://memcog.fernuni.ch/studies/prm_wm_s1/images/pumpkin.png,https://memcog.fernuni.ch/studies/prm_wm_s1/images/mailbox01.png,,,,,,,,,,222222,yes,,,,,1,,,,,,,,,,0,1,ongoing,19935,19931,,19935,,19961.9,1,1,practice,,,,
Color_recall_v3_hat,html.Screen,1_0_3_0_0_1_0_3,2024-02-22T14:50:34.537Z,,,,,1,0,,,,,,,,,,,,,,,,,2,,,,NaN,skipped,NA,NA,,,,,26,93,,,,,,https://memcog.fernuni.ch/studies/prm_wm_s1/images/pumpkin.png,https://memcog.fernuni.ch/studies/prm_wm_s1/images/mailbox01.png,,,,,,,,,,222222,yes,,,,,1,,,,,,,,,,0,1,ongoing,19935,19931,,19935,,19961.9,1,1,practice,,,,
Color_recall_v4_hat,html.Screen,1_0_3_0_0_1_0_4,2024-02-22T14:50:34.538Z,,,,,1,0,,,,,,,,,,,,,,,,,2,,,,NaN,skipped,NA,NA,,,,,26,93,,,,,,https://memcog.fernuni.ch/studies/prm_wm_s1/images/pumpkin.png,https://memcog.fernuni.ch/studies/prm_wm_s1/images/mailbox01.png,,,,,,,,,,222222,yes,,,,,1,,,,,,,,,,0,1,ongoing,19936,19931,,19936,,19961.9,1,1,practice,,,,
Color_recall_v5_instrument,html.Screen,1_0_3_0_0_1_0_5,2024-02-22T14:50:34.538Z,,,,,1,0,,,,,,,,,,,,,,,,,2,,,,NaN,skipped,NA,NA,,,,,26,93,,,,,,https://memcog.fernuni.ch/studies/prm_wm_s1/images/pumpkin.png,https://memcog.fernuni.ch/studies/prm_wm_s1/images/mailbox01.png,,,,,,,,,,222222,yes,,,,,1,,,,,,,,,,0,1,ongoing,19936,19931,,19936,,19961.9,1,1,practice,,,,
Color_recall_v6_instrument,html.Screen,1_0_3_0_0_1_0_6,2024-02-22T14:50:34.539Z,,,,,1,0,,,,,,,,,,,,,,,,,2,,,,NaN,skipped,NA,NA,,,,,26,93,,,,,,https://memcog.fernuni.ch/studies/prm_wm_s1/images/pumpkin.png,https://memcog.fernuni.ch/studies/prm_wm_s1/images/mailbox01.png,,,,,,,,,,222222,yes,,,,,1,,,,,,,,,,0,1,ongoing,19937,19931,,19937,,19961.9,1,1,practice,,,,
Location_recall,html.Screen,1_0_3_0_0_1_0_7,2024-02-22T14:50:34.539Z,,,,,1,0,,,,,,,,,,,,,,,,,2,,,,NaN,skipped,NA,NA,,,,,26,93,,,,,,https://memcog.fernuni.ch/studies/prm_wm_s1/images/pumpkin.png,https://memcog.fernuni.ch/studies/prm_wm_s1/images/mailbox01.png,,,,,,,,,,222222,yes,,,,,1,,,,,,,,,,0,1,ongoing,19938,19931,,19938,,19961.9,1,1,practice,,,,
Recall_sequence,flow.Sequence,1_0_3_0_0_1_0,2024-02-22T14:50:34.540Z,,,,,1,0,,,,,,,,,,,,,,,,,2,,,,3969.120000000000,completion,NA,NA,,,,,26,93,,,,,,https://memcog.fernuni.ch/studies/prm_wm_s1/images/pumpkin.png,https://memcog.fernuni.ch/studies/prm_wm_s1/images/mailbox01.png,,,,,,,,,,222222,yes,,,,,1,,,,,,,,,,0,1,ongoing,19938,19931,15945.22,15953,15961.88,19961.9,1,1,practice,,,,
Recall_loop,flow.Loop,1_0_3_0_0_1,2024-02-22T14:50:34.540Z,,,,,1,,,,,,,,,,,,,,,,,,2,,,,3969.120000000000,completion,,,,,,,,,,,,,,,,,,,,,,,,,222222,yes,,,,,1,,,,,,,,,,0,,,19938,19931,15945.22,15953,15961.88,19961.9,,,,,,,
Set_feedback,html.Screen,1_0_3_0_0_2,2024-02-22T14:50:34.541Z,,,,,1,,,,,,,,,,,,,,,,,,2,,,,NaN,skipped,,,,,,,,,,,,,,,,,,,,,,,,,222222,yes,,,,,1,,,,,,,,,,0,,,19938,19931,,19938,,19961.9,,,,,,,
Block_break_screen,html.Screen,1_0_3_0_0_3,2024-02-22T14:50:34.541Z,,,,,1,,,,,,,,,,,,,,,,,,2,,,,NaN,skipped,,,,,,,,,,,,,,,,,,,,,,,,,222222,yes,,,,,1,,,,,,,,,,0,,,19938,19931,,19938,,19961.9,,,,,,,
Task_sequence,flow.Sequence,1_0_3_0_0,2024-02-22T14:50:34.541Z,,,,,1,,,,,,,,,,,,,,,,,,2,,,,5969.120000000000,completion,,,,,,,,,,,,,,,,,,,,,,,,,222222,yes,,,,,1,,,,,,,,,,0,,,19938,19931,13945.2,13965,13961.88,19961.9,,,,,,,
Repetition loop,flow.Loop,1_0_3_0,2024-02-22T14:50:34.541Z,,,,,1,,,,,,,,,,,,,,,,,,2,,,,5969.120000000000,completion,,,,,,,,,,,,,,,,,,,,,,,,,222222,yes,,,,,,,,,,,,,,,0,,,19938,19931,13945.2,13965,13961.88,19961.9,,,,,,,
Encoding_screen_v1_animal,html.Screen,1_0_3_1_0_0_0_0,2024-02-22T14:50:36.547Z,,,,,2,0,,,,,,,,,,,,,,,,,2,509.02076743830600,,,2000.0200000000000,timeout,NA,NA,,,,,61,216,,,,,,https://memcog.fernuni.ch/studies/prm_wm_s1/images/gift01.png,https://memcog.fernuni.ch/studies/prm_wm_s1/images/gazebo.png,,,,,178.15726860340700,NaN,NaN,165.4317494174490,,222222,yes,254.51038371915300,253.51038371915300,234.51038371915300,233.51038371915300,1,,,,,,,,,,1,2,ongoing,21945,21944.36,19945.24,19945,19961.9,21961.92,2,1,practice,,,,
Encoding_screen_v2_animal,html.Screen,1_0_3_1_0_0_0_1,2024-02-22T14:50:36.550Z,,,,,2,0,,,,,,,,,,,,,,,,,2,,,,NaN,skipped,NA,NA,,,,,61,216,,,,,,https://memcog.fernuni.ch/studies/prm_wm_s1/images/gift01.png,https://memcog.fernuni.ch/studies/prm_wm_s1/images/gazebo.png,,,,,,,,,,222222,yes,,,,,1,,,,,,,,,,1,2,ongoing,21948,21944.36,,21948,,21961.92,2,1,practice,,,,
Encoding_screen_v3_hat,html.Screen,1_0_3_1_0_0_0_2,2024-02-22T14:50:36.552Z,,,,,2,0,,,,,,,,,,,,,,,,,2,,,,NaN,skipped,NA,NA,,,,,61,216,,,,,,https://memcog.fernuni.ch/studies/prm_wm_s1/images/gift01.png,https://memcog.fernuni.ch/studies/prm_wm_s1/images/gazebo.png,,,,,,,,,,222222,yes,,,,,1,,,,,,,,,,1,2,ongoing,21950,21944.36,,21949,,21961.92,2,1,practice,,,,
Encoding_screen_v4_hat,html.Screen,1_0_3_1_0_0_0_3,2024-02-22T14:50:36.553Z,,,,,2,0,,,,,,,,,,,,,,,,,2,,,,NaN,skipped,NA,NA,,,,,61,216,,,,,,https://memcog.fernuni.ch/studies/prm_wm_s1/images/gift01.png,https://memcog.fernuni.ch/studies/prm_wm_s1/images/gazebo.png,,,,,,,,,,222222,yes,,,,,1,,,,,,,,,,1,2,ongoing,21951,21944.36,,21951,,21961.92,2,1,practice,,,,
Encoding_screen_v5_instrument,html.Screen,1_0_3_1_0_0_0_4,2024-02-22T14:50:36.553Z,,,,,2,0,,,,,,,,,,,,,,,,,2,,,,NaN,skipped,NA,NA,,,,,61,216,,,,,,https://memcog.fernuni.ch/studies/prm_wm_s1/images/gift01.png,https://memcog.fernuni.ch/studies/prm_wm_s1/images/gazebo.png,,,,,,,,,,222222,yes,,,,,1,,,,,,,,,,1,2,ongoing,21951,21944.36,,21951,,21961.92,2,1,practice,,,,
Encoding_screen_v6_instrument,html.Screen,1_0_3_1_0_0_0_5,2024-02-22T14:50:36.555Z,,,,,2,0,,,,,,,,,,,,,,,,,2,,,,NaN,skipped,NA,NA,,,,,61,216,,,,,,https://memcog.fernuni.ch/studies/prm_wm_s1/images/gift01.png,https://memcog.fernuni.ch/studies/prm_wm_s1/images/gazebo.png,,,,,,,,,,222222,yes,,,,,1,,,,,,,,,,1,2,ongoing,21952,21944.36,,21952,,21961.92,2,1,practice,,,,
Encoding_sequence,flow.Sequence,1_0_3_1_0_0_0,2024-02-22T14:50:36.555Z,,,,,2,0,,,,,,,,,,,,,,,,,2,,,,1982.4600000000000,completion,NA,NA,,,,,61,216,,,,,,https://memcog.fernuni.ch/studies/prm_wm_s1/images/gift01.png,https://memcog.fernuni.ch/studies/prm_wm_s1/images/gazebo.png,,,,,,,,,,222222,yes,,,,,1,,,,,,,,,,1,2,ongoing,21952,21944.36,19945.24,19944,19961.9,21961.92,2,1,practice,,,,
Encoding_loop,flow.Loop,1_0_3_1_0_0,2024-02-22T14:50:36.555Z,,,,,2,,,,,,,,,,,,,,,,,,2,,,,1982.4600000000000,completion,,,,,,,,,,,,,,,,,,,,,,,,,222222,yes,,,,,1,,,,,,,,,,1,,,21953,21944.36,19945.24,19944,19961.9,21961.92,,,,,,,
Location_recall,html.Screen,1_0_3_1_0_1_0_0,2024-02-22T14:50:36.555Z,,,,,2,0,,,,,,,,,,,,,,,,,2,,,,NaN,skipped,NA,NA,,,,,61,216,,,,,,https://memcog.fernuni.ch/studies/prm_wm_s1/images/gift01.png,https://memcog.fernuni.ch/studies/prm_wm_s1/images/gazebo.png,,,,,,,,,,222222,yes,,,,,1,,,,,,,,,,1,2,ongoing,21953,21944.36,,21953,,21961.92,2,1,practice,,,,
Color_recall_v1_animal,html.Screen,1_0_3_1_0_1_0_1,2024-02-22T14:50:38.170Z,,,,,2,0,,305.5682505825510,160.5682505825510,74.47335174486380,-74.47335174486380,61,135.47335174486400,107.75258127089000,,,,,,,,,2,,,,1601.0800000000000,response,NA,NA,,,,,61,216,,,,,,https://memcog.fernuni.ch/studies/prm_wm_s1/images/gift01.png,https://memcog.fernuni.ch/studies/prm_wm_s1/images/gazebo.png,,,,,,,,,,222222,yes,,,,,1,continue,click button,,,,,,,,1,2,ongoing,23568,23563,21944.36,21954,21961.92,23595.24,2,1,practice,,,,
Color_recall_v2_animal,html.Screen,1_0_3_1_0_1_0_2,2024-02-22T14:50:38.171Z,,,,,2,0,,,,,,,,,,,,,,,,,2,,,,NaN,skipped,NA,NA,,,,,61,216,,,,,,https://memcog.fernuni.ch/studies/prm_wm_s1/images/gift01.png,https://memcog.fernuni.ch/studies/prm_wm_s1/images/gazebo.png,,,,,,,,,,222222,yes,,,,,1,,,,,,,,,,1,2,ongoing,23570,23563,,23570,,23595.24,2,1,practice,,,,
Color_recall_v3_hat,html.Screen,1_0_3_1_0_1_0_3,2024-02-22T14:50:38.172Z,,,,,2,0,,,,,,,,,,,,,,,,,2,,,,NaN,skipped,NA,NA,,,,,61,216,,,,,,https://memcog.fernuni.ch/studies/prm_wm_s1/images/gift01.png,https://memcog.fernuni.ch/studies/prm_wm_s1/images/gazebo.png,,,,,,,,,,222222,yes,,,,,1,,,,,,,,,,1,2,ongoing,23571,23563,,23571,,23595.24,2,1,practice,,,,
Color_recall_v4_hat,html.Screen,1_0_3_1_0_1_0_4,2024-02-22T14:50:38.172Z,,,,,2,0,,,,,,,,,,,,,,,,,2,,,,NaN,skipped,NA,NA,,,,,61,216,,,,,,https://memcog.fernuni.ch/studies/prm_wm_s1/images/gift01.png,https://memcog.fernuni.ch/studies/prm_wm_s1/images/gazebo.png,,,,,,,,,,222222,yes,,,,,1,,,,,,,,,,1,2,ongoing,23571,23563,,23571,,23595.24,2,1,practice,,,,
Color_recall_v5_instrument,html.Screen,1_0_3_1_0_1_0_5,2024-02-22T14:50:38.173Z,,,,,2,0,,,,,,,,,,,,,,,,,2,,,,NaN,skipped,NA,NA,,,,,61,216,,,,,,https://memcog.fernuni.ch/studies/prm_wm_s1/images/gift01.png,https://memcog.fernuni.ch/studies/prm_wm_s1/images/gazebo.png,,,,,,,,,,222222,yes,,,,,1,,,,,,,,,,1,2,ongoing,23571,23563,,23571,,23595.24,2,1,practice,,,,
Color_recall_v6_instrument,html.Screen,1_0_3_1_0_1_0_6,2024-02-22T14:50:38.174Z,,,,,2,0,,,,,,,,,,,,,,,,,2,,,,NaN,skipped,NA,NA,,,,,61,216,,,,,,https://memcog.fernuni.ch/studies/prm_wm_s1/images/gift01.png,https://memcog.fernuni.ch/studies/prm_wm_s1/images/gazebo.png,,,,,,,,,,222222,yes,,,,,1,,,,,,,,,,1,2,ongoing,23572,23563,,23572,,23595.24,2,1,practice,,,,
Location_recall,html.Screen,1_0_3_1_0_1_0_7,2024-02-22T14:50:38.175Z,,,,,2,0,,,,,,,,,,,,,,,,,2,,,,NaN,skipped,NA,NA,,,,,61,216,,,,,,https://memcog.fernuni.ch/studies/prm_wm_s1/images/gift01.png,https://memcog.fernuni.ch/studies/prm_wm_s1/images/gazebo.png,,,,,,,,,,222222,yes,,,,,1,,,,,,,,,,1,2,ongoing,23572,23563,,23572,,23595.24,2,1,practice,,,,
Recall_sequence,flow.Sequence,1_0_3_1_0_1_0,2024-02-22T14:50:38.175Z,,,,,2,0,,,,,,,,,,,,,,,,,2,,,,1601.0800000000000,completion,NA,NA,,,,,61,216,,,,,,https://memcog.fernuni.ch/studies/prm_wm_s1/images/gift01.png,https://memcog.fernuni.ch/studies/prm_wm_s1/images/gazebo.png,,,,,,,,,,222222,yes,,,,,1,,,,,,,,,,1,2,ongoing,23572,23563,21944.36,21953,21961.92,23595.24,2,1,practice,,,,
Recall_loop,flow.Loop,1_0_3_1_0_1,2024-02-22T14:50:38.175Z,,,,,2,,,,,,,,,,,,,,,,,,2,,,,1601.0800000000000,completion,,,,,,,,,,,,,,,,,,,,,,,,,222222,yes,,,,,1,,,,,,,,,,1,,,23573,23563,21944.36,21953,21961.92,23595.24,,,,,,,
Set_feedback,html.Screen,1_0_3_1_0_2,2024-02-22T14:50:38.175Z,,,,,2,,,,,,,,,,,,,,,,,,2,,,,NaN,skipped,,,,,,,,,,,,,,,,,,,,,,,,,222222,yes,,,,,1,,,,,,,,,,1,,,23574,23563,,23574,,23595.24,,,,,,,
Block_break_screen,html.Screen,1_0_3_1_0_3,2024-02-22T14:50:38.176Z,,,,,2,,,,,,,,,,,,,,,,,,2,,,,NaN,skipped,,,,,,,,,,,,,,,,,,,,,,,,,222222,yes,,,,,1,,,,,,,,,,1,,,23574,23563,,23574,,23595.24,,,,,,,
Task_sequence,flow.Sequence,1_0_3_1_0,2024-02-22T14:50:38.176Z,,,,,2,,,,,,,,,,,,,,,,,,2,,,,3601.1000000000000,completion,,,,,,,,,,,,,,,,,,,,,,,,,222222,yes,,,,,1,,,,,,,,,,1,,,23574,23563,19945.24,19944,19961.9,23595.24,,,,,,,
Repetition loop,flow.Loop,1_0_3_1,2024-02-22T14:50:38.176Z,,,,,2,,,,,,,,,,,,,,,,,,2,,,,3601.1000000000000,completion,,,,,,,,,,,,,,,,,,,,,,,,,222222,yes,,,,,,,,,,,,,,,1,,,23574,23563,19945.24,19944,19961.9,23595.24,,,,,,,
Encoding_screen_v1_animal,html.Screen,1_0_3_2_0_0_0_0,2024-02-22T14:50:40.181Z,,,,,3,0,,,,,,,,,,,,,,,,,2,509.02076743830600,,,2000.0400000000000,timeout,NA,NA,,,,,151,72,,,,,,https://memcog.fernuni.ch/studies/prm_wm_s1/images/gamecontroller01.png,https://memcog.fernuni.ch/studies/prm_wm_s1/images/tricycle.png,,,,,178.15726860340700,NaN,NaN,165.4317494174490,,222222,yes,254.51038371915300,253.51038371915300,234.51038371915300,233.51038371915300,1,,,,,,,,,,2,3,ongoing,25579,25578.66,23578.6,23580,23595.24,25595.28,3,1,practice,,,,
Encoding_screen_v2_animal,html.Screen,1_0_3_2_0_0_0_1,2024-02-22T14:50:40.184Z,,,,,3,0,,,,,,,,,,,,,,,,,2,,,,NaN,skipped,NA,NA,,,,,151,72,,,,,,https://memcog.fernuni.ch/studies/prm_wm_s1/images/gamecontroller01.png,https://memcog.fernuni.ch/studies/prm_wm_s1/images/tricycle.png,,,,,,,,,,222222,yes,,,,,1,,,,,,,,,,2,3,ongoing,25582,25578.66,,25582,,25595.28,3,1,practice,,,,
Encoding_screen_v3_hat,html.Screen,1_0_3_2_0_0_0_2,2024-02-22T14:50:40.185Z,,,,,3,0,,,,,,,,,,,,,,,,,2,,,,NaN,skipped,NA,NA,,,,,151,72,,,,,,https://memcog.fernuni.ch/studies/prm_wm_s1/images/gamecontroller01.png,https://memcog.fernuni.ch/studies/prm_wm_s1/images/tricycle.png,,,,,,,,,,222222,yes,,,,,1,,,,,,,,,,2,3,ongoing,25583,25578.66,,25583,,25595.28,3,1,practice,,,,
Encoding_screen_v4_hat,html.Screen,1_0_3_2_0_0_0_3,2024-02-22T14:50:40.186Z,,,,,3,0,,,,,,,,,,,,,,,,,2,,,,NaN,skipped,NA,NA,,,,,151,72,,,,,,https://memcog.fernuni.ch/studies/prm_wm_s1/images/gamecontroller01.png,https://memcog.fernuni.ch/studies/prm_wm_s1/images/tricycle.png,,,,,,,,,,222222,yes,,,,,1,,,,,,,,,,2,3,ongoing,25584,25578.66,,25584,,25595.28,3,1,practice,,,,
Encoding_screen_v5_instrument,html.Screen,1_0_3_2_0_0_0_4,2024-02-22T14:50:40.187Z,,,,,3,0,,,,,,,,,,,,,,,,,2,,,,NaN,skipped,NA,NA,,,,,151,72,,,,,,https://memcog.fernuni.ch/studies/prm_wm_s1/images/gamecontroller01.png,https://memcog.fernuni.ch/studies/prm_wm_s1/images/tricycle.png,,,,,,,,,,222222,yes,,,,,1,,,,,,,,,,2,3,ongoing,25585,25578.66,,25585,,25595.28,3,1,practice,,,,
Encoding_screen_v6_instrument,html.Screen,1_0_3_2_0_0_0_5,2024-02-22T14:50:40.188Z,,,,,3,0,,,,,,,,,,,,,,,,,2,,,,NaN,skipped,NA,NA,,,,,151,72,,,,,,https://memcog.fernuni.ch/studies/prm_wm_s1/images/gamecontroller01.png,https://memcog.fernuni.ch/studies/prm_wm_s1/images/tricycle.png,,,,,,,,,,222222,yes,,,,,1,,,,,,,,,,2,3,ongoing,25586,25578.66,,25586,,25595.28,3,1,practice,,,,
Encoding_sequence,flow.Sequence,1_0_3_2_0_0_0,2024-02-22T14:50:40.188Z,,,,,3,0,,,,,,,,,,,,,,,,,2,,,,1983.4200000000000,completion,NA,NA,,,,,151,72,,,,,,https://memcog.fernuni.ch/studies/prm_wm_s1/images/gamecontroller01.png,https://memcog.fernuni.ch/studies/prm_wm_s1/images/tricycle.png,,,,,,,,,,222222,yes,,,,,1,,,,,,,,,,2,3,ongoing,25586,25578.66,23578.6,23580,23595.24,25595.28,3,1,practice,,,,
Encoding_loop,flow.Loop,1_0_3_2_0_0,2024-02-22T14:50:40.188Z,,,,,3,,,,,,,,,,,,,,,,,,2,,,,1983.4200000000000,completion,,,,,,,,,,,,,,,,,,,,,,,,,222222,yes,,,,,1,,,,,,,,,,2,,,25587,25578.66,23578.6,23580,23595.24,25595.28,,,,,,,
Location_recall,html.Screen,1_0_3_2_0_1_0_0,2024-02-22T14:50:40.189Z,,,,,3,0,,,,,,,,,,,,,,,,,2,,,,NaN,skipped,NA,NA,,,,,151,72,,,,,,https://memcog.fernuni.ch/studies/prm_wm_s1/images/gamecontroller01.png,https://memcog.fernuni.ch/studies/prm_wm_s1/images/tricycle.png,,,,,,,,,,222222,yes,,,,,1,,,,,,,,,,2,3,ongoing,25587,25578.66,,25587,,25595.28,3,1,practice,,,,
Color_recall_v1_animal,html.Screen,1_0_3_2_0_1_0_1,2024-02-22T14:50:41.484Z,,,,,3,0,,-137.4317494174490,177.5682505825510,46.42414225332440,46.42414225332440,151,104.57585774667600,-23.162787172532500,,,,,,,,,2,,,,1283.7200000000000,response,NA,NA,,,,,151,72,,,,,,https://memcog.fernuni.ch/studies/prm_wm_s1/images/gamecontroller01.png,https://memcog.fernuni.ch/studies/prm_wm_s1/images/tricycle.png,,,,,,,,,,222222,yes,,,,,1,continue,click button,,,,,,,,2,3,ongoing,26882,26879,25578.66,25588,25595.28,26911.94,3,1,practice,,,,
Color_recall_v2_animal,html.Screen,1_0_3_2_0_1_0_2,2024-02-22T14:50:41.485Z,,,,,3,0,,,,,,,,,,,,,,,,,2,,,,NaN,skipped,NA,NA,,,,,151,72,,,,,,https://memcog.fernuni.ch/studies/prm_wm_s1/images/gamecontroller01.png,https://memcog.fernuni.ch/studies/prm_wm_s1/images/tricycle.png,,,,,,,,,,222222,yes,,,,,1,,,,,,,,,,2,3,ongoing,26884,26879,,26883,,26911.94,3,1,practice,,,,
Color_recall_v3_hat,html.Screen,1_0_3_2_0_1_0_3,2024-02-22T14:50:41.486Z,,,,,3,0,,,,,,,,,,,,,,,,,2,,,,NaN,skipped,NA,NA,,,,,151,72,,,,,,https://memcog.fernuni.ch/studies/prm_wm_s1/images/gamecontroller01.png,https://memcog.fernuni.ch/studies/prm_wm_s1/images/tricycle.png,,,,,,,,,,222222,yes,,,,,1,,,,,,,,,,2,3,ongoing,26884,26879,,26884,,26911.94,3,1,practice,,,,
Color_recall_v4_hat,html.Screen,1_0_3_2_0_1_0_4,2024-02-22T14:50:41.487Z,,,,,3,0,,,,,,,,,,,,,,,,,2,,,,NaN,skipped,NA,NA,,,,,151,72,,,,,,https://memcog.fernuni.ch/studies/prm_wm_s1/images/gamecontroller01.png,https://memcog.fernuni.ch/studies/prm_wm_s1/images/tricycle.png,,,,,,,,,,222222,yes,,,,,1,,,,,,,,,,2,3,ongoing,26885,26879,,26885,,26911.94,3,1,practice,,,,
Color_recall_v5_instrument,html.Screen,1_0_3_2_0_1_0_5,2024-02-22T14:50:41.487Z,,,,,3,0,,,,,,,,,,,,,,,,,2,,,,NaN,skipped,NA,NA,,,,,151,72,,,,,,https://memcog.fernuni.ch/studies/prm_wm_s1/images/gamecontroller01.png,https://memcog.fernuni.ch/studies/prm_wm_s1/images/tricycle.png,,,,,,,,,,222222,yes,,,,,1,,,,,,,,,,2,3,ongoing,26885,26879,,26885,,26911.94,3,1,practice,,,,
Color_recall_v6_instrument,html.Screen,1_0_3_2_0_1_0_6,2024-02-22T14:50:41.488Z,,,,,3,0,,,,,,,,,,,,,,,,,2,,,,NaN,skipped,NA,NA,,,,,151,72,,,,,,https://memcog.fernuni.ch/studies/prm_wm_s1/images/gamecontroller01.png,https://memcog.fernuni.ch/studies/prm_wm_s1/images/tricycle.png,,,,,,,,,,222222,yes,,,,,1,,,,,,,,,,2,3,ongoing,26886,26879,,26886,,26911.94,3,1,practice,,,,
Location_recall,html.Screen,1_0_3_2_0_1_0_7,2024-02-22T14:50:41.488Z,,,,,3,0,,,,,,,,,,,,,,,,,2,,,,NaN,skipped,NA,NA,,,,,151,72,,,,,,https://memcog.fernuni.ch/studies/prm_wm_s1/images/gamecontroller01.png,https://memcog.fernuni.ch/studies/prm_wm_s1/images/tricycle.png,,,,,,,,,,222222,yes,,,,,1,,,,,,,,,,2,3,ongoing,26886,26879,,26886,,26911.94,3,1,practice,,,,
Recall_sequence,flow.Sequence,1_0_3_2_0_1_0,2024-02-22T14:50:41.488Z,,,,,3,0,,,,,,,,,,,,,,,,,2,,,,1283.7200000000000,completion,NA,NA,,,,,151,72,,,,,,https://memcog.fernuni.ch/studies/prm_wm_s1/images/gamecontroller01.png,https://memcog.fernuni.ch/studies/prm_wm_s1/images/tricycle.png,,,,,,,,,,222222,yes,,,,,1,,,,,,,,,,2,3,ongoing,26886,26879,25578.66,25587,25595.28,26911.94,3,1,practice,,,,
Recall_loop,flow.Loop,1_0_3_2_0_1,2024-02-22T14:50:41.489Z,,,,,3,,,,,,,,,,,,,,,,,,2,,,,1283.7200000000000,completion,,,,,,,,,,,,,,,,,,,,,,,,,222222,yes,,,,,1,,,,,,,,,,2,,,26887,26879,25578.66,25587,25595.28,26911.94,,,,,,,
Set_feedback,html.Screen,1_0_3_2_0_2,2024-02-22T14:50:41.489Z,,,,,3,,,,,,,,,,,,,,,,,,2,,,,NaN,skipped,,,,,,,,,,,,,,,,,,,,,,,,,222222,yes,,,,,1,,,,,,,,,,2,,,26887,26879,,26887,,26911.94,,,,,,,
Block_break_screen,html.Screen,1_0_3_2_0_3,2024-02-22T14:50:41.489Z,,,,,3,,,,,,,,,,,,,,,,,,2,,,,NaN,skipped,,,,,,,,,,,,,,,,,,,,,,,,,222222,yes,,,,,1,,,,,,,,,,2,,,26887,26879,,26887,,26911.94,,,,,,,
Task_sequence,flow.Sequence,1_0_3_2_0,2024-02-22T14:50:41.489Z,,,,,3,,,,,,,,,,,,,,,,,,2,,,,3283.7600000000000,completion,,,,,,,,,,,,,,,,,,,,,,,,,222222,yes,,,,,1,,,,,,,,,,2,,,26887,26879,23578.6,23580,23595.24,26911.94,,,,,,,
Repetition loop,flow.Loop,1_0_3_2,2024-02-22T14:50:41.489Z,,,,,3,,,,,,,,,,,,,,,,,,2,,,,3283.7600000000000,completion,,,,,,,,,,,,,,,,,,,,,,,,,222222,yes,,,,,,,,,,,,,,,2,,,26887,26879,23578.6,23579,23595.24,26911.94,,,,,,,
Encoding_screen_v1_animal,html.Screen,1_0_3_3_0_0_0_0,2024-02-22T14:50:43.498Z,,,,,4,1,,,,,,,,,,,,,,,,,2,509.02076743830600,,,1999.3600000000000,timeout,NA,NA,,,,,196,102,,,,,,https://memcog.fernuni.ch/studies/prm_wm_s1/images/mug05.png,https://memcog.fernuni.ch/studies/prm_wm_s1/images/basketball01.png,,,,,178.15726860340700,NaN,NaN,165.4317494174490,,222222,yes,254.51038371915300,253.51038371915300,234.51038371915300,233.51038371915300,1,,,,,,,,,,3,4,ongoing,28897,28895.3,26895.28,26893,26911.94,28911.3,4,1,practice,,,,
Encoding_screen_v2_animal,html.Screen,1_0_3_3_0_0_0_1,2024-02-22T14:50:43.501Z,,,,,4,1,,,,,,,,,,,,,,,,,2,,,,NaN,skipped,NA,NA,,,,,196,102,,,,,,https://memcog.fernuni.ch/studies/prm_wm_s1/images/mug05.png,https://memcog.fernuni.ch/studies/prm_wm_s1/images/basketball01.png,,,,,,,,,,222222,yes,,,,,1,,,,,,,,,,3,4,ongoing,28899,28895.3,,28899,,28911.3,4,1,practice,,,,
Encoding_screen_v3_hat,html.Screen,1_0_3_3_0_0_0_2,2024-02-22T14:50:43.502Z,,,,,4,1,,,,,,,,,,,,,,,,,2,,,,NaN,skipped,NA,NA,,,,,196,102,,,,,,https://memcog.fernuni.ch/studies/prm_wm_s1/images/mug05.png,https://memcog.fernuni.ch/studies/prm_wm_s1/images/basketball01.png,,,,,,,,,,222222,yes,,,,,1,,,,,,,,,,3,4,ongoing,28900,28895.3,,28900,,28911.3,4,1,practice,,,,
Encoding_screen_v4_hat,html.Screen,1_0_3_3_0_0_0_3,2024-02-22T14:50:43.503Z,,,,,4,1,,,,,,,,,,,,,,,,,2,,,,NaN,skipped,NA,NA,,,,,196,102,,,,,,https://memcog.fernuni.ch/studies/prm_wm_s1/images/mug05.png,https://memcog.fernuni.ch/studies/prm_wm_s1/images/basketball01.png,,,,,,,,,,222222,yes,,,,,1,,,,,,,,,,3,4,ongoing,28901,28895.3,,28901,,28911.3,4,1,practice,,,,
Encoding_screen_v5_instrument,html.Screen,1_0_3_3_0_0_0_4,2024-02-22T14:50:43.504Z,,,,,4,1,,,,,,,,,,,,,,,,,2,,,,NaN,skipped,NA,NA,,,,,196,102,,,,,,https://memcog.fernuni.ch/studies/prm_wm_s1/images/mug05.png,https://memcog.fernuni.ch/studies/prm_wm_s1/images/basketball01.png,,,,,,,,,,222222,yes,,,,,1,,,,,,,,,,3,4,ongoing,28902,28895.3,,28902,,28911.3,4,1,practice,,,,
Encoding_screen_v6_instrument,html.Screen,1_0_3_3_0_0_0_5,2024-02-22T14:50:43.505Z,,,,,4,1,,,,,,,,,,,,,,,,,2,,,,NaN,skipped,NA,NA,,,,,196,102,,,,,,https://memcog.fernuni.ch/studies/prm_wm_s1/images/mug05.png,https://memcog.fernuni.ch/studies/prm_wm_s1/images/basketball01.png,,,,,,,,,,222222,yes,,,,,1,,,,,,,,,,3,4,ongoing,28903,28895.3,,28903,,28911.3,4,1,practice,,,,
Encoding_sequence,flow.Sequence,1_0_3_3_0_0_0,2024-02-22T14:50:43.505Z,,,,,4,1,,,,,,,,,,,,,,,,,2,,,,1983.3600000000000,completion,NA,NA,,,,,196,102,,,,,,https://memcog.fernuni.ch/studies/prm_wm_s1/images/mug05.png,https://memcog.fernuni.ch/studies/prm_wm_s1/images/basketball01.png,,,,,,,,,,222222,yes,,,,,1,,,,,,,,,,3,4,ongoing,28903,28895.3,26895.28,26892,26911.94,28911.3,4,1,practice,,,,
Encoding_loop,flow.Loop,1_0_3_3_0_0,2024-02-22T14:50:43.505Z,,,,,4,,,,,,,,,,,,,,,,,,2,,,,1983.3600000000000,completion,,,,,,,,,,,,,,,,,,,,,,,,,222222,yes,,,,,1,,,,,,,,,,3,,,28903,28895.3,26895.28,26892,26911.94,28911.3,,,,,,,
Location_recall,html.Screen,1_0_3_3_0_1_0_0,2024-02-22T14:50:43.506Z,,,,,4,1,,,,,,,,,,,,,,,,,2,,,,NaN,skipped,NA,NA,,,,,196,102,,,,,,https://memcog.fernuni.ch/studies/prm_wm_s1/images/mug05.png,https://memcog.fernuni.ch/studies/prm_wm_s1/images/basketball01.png,,,,,,,,,,222222,yes,,,,,1,,,,,,,,,,3,4,ongoing,28904,28895.3,,28904,,28911.3,4,1,practice,,,,
Color_recall_v1_animal,html.Screen,1_0_3_3_0_1_0_1,2024-02-22T14:50:44.983Z,,,,,4,1,,247.5682505825510,262.5682505825510,79.75939677307620,-79.75939677307620,196,-84.24060322692380,-130.92483702049000,,,,,,,,,2,,,,1467.7000000000000,response,NA,NA,,,,,196,102,,,,,,https://memcog.fernuni.ch/studies/prm_wm_s1/images/mug05.png,https://memcog.fernuni.ch/studies/prm_wm_s1/images/basketball01.png,,,,,,,,,,222222,yes,,,,,1,continue,click button,,,,,,,,3,4,ongoing,30381,30379,28895.3,28905,28911.3,30394.78,4,1,practice,,,,
Color_recall_v2_animal,html.Screen,1_0_3_3_0_1_0_2,2024-02-22T14:50:44.984Z,,,,,4,1,,,,,,,,,,,,,,,,,2,,,,NaN,skipped,NA,NA,,,,,196,102,,,,,,https://memcog.fernuni.ch/studies/prm_wm_s1/images/mug05.png,https://memcog.fernuni.ch/studies/prm_wm_s1/images/basketball01.png,,,,,,,,,,222222,yes,,,,,1,,,,,,,,,,3,4,ongoing,30382,30379,,30382,,30394.78,4,1,practice,,,,
Color_recall_v3_hat,html.Screen,1_0_3_3_0_1_0_3,2024-02-22T14:50:44.984Z,,,,,4,1,,,,,,,,,,,,,,,,,2,,,,NaN,skipped,NA,NA,,,,,196,102,,,,,,https://memcog.fernuni.ch/studies/prm_wm_s1/images/mug05.png,https://memcog.fernuni.ch/studies/prm_wm_s1/images/basketball01.png,,,,,,,,,,222222,yes,,,,,1,,,,,,,,,,3,4,ongoing,30382,30379,,30382,,30394.78,4,1,practice,,,,
Color_recall_v4_hat,html.Screen,1_0_3_3_0_1_0_4,2024-02-22T14:50:44.984Z,,,,,4,1,,,,,,,,,,,,,,,,,2,,,,NaN,skipped,NA,NA,,,,,196,102,,,,,,https://memcog.fernuni.ch/studies/prm_wm_s1/images/mug05.png,https://memcog.fernuni.ch/studies/prm_wm_s1/images/basketball01.png,,,,,,,,,,222222,yes,,,,,1,,,,,,,,,,3,4,ongoing,30382,30379,,30382,,30394.78,4,1,practice,,,,
Color_recall_v5_instrument,html.Screen,1_0_3_3_0_1_0_5,2024-02-22T14:50:44.985Z,,,,,4,1,,,,,,,,,,,,,,,,,2,,,,NaN,skipped,NA,NA,,,,,196,102,,,,,,https://memcog.fernuni.ch/studies/prm_wm_s1/images/mug05.png,https://memcog.fernuni.ch/studies/prm_wm_s1/images/basketball01.png,,,,,,,,,,222222,yes,,,,,1,,,,,,,,,,3,4,ongoing,30382,30379,,30382,,30394.78,4,1,practice,,,,
Color_recall_v6_instrument,html.Screen,1_0_3_3_0_1_0_6,2024-02-22T14:50:44.985Z,,,,,4,1,,,,,,,,,,,,,,,,,2,,,,NaN,skipped,NA,NA,,,,,196,102,,,,,,https://memcog.fernuni.ch/studies/prm_wm_s1/images/mug05.png,https://memcog.fernuni.ch/studies/prm_wm_s1/images/basketball01.png,,,,,,,,,,222222,yes,,,,,1,,,,,,,,,,3,4,ongoing,30382,30379,,30382,,30394.78,4,1,practice,,,,
Location_recall,html.Screen,1_0_3_3_0_1_0_7,2024-02-22T14:50:44.985Z,,,,,4,1,,,,,,,,,,,,,,,,,2,,,,NaN,skipped,NA,NA,,,,,196,102,,,,,,https://memcog.fernuni.ch/studies/prm_wm_s1/images/mug05.png,https://memcog.fernuni.ch/studies/prm_wm_s1/images/basketball01.png,,,,,,,,,,222222,yes,,,,,1,,,,,,,,,,3,4,ongoing,30382,30379,,30382,,30394.78,4,1,practice,,,,
Recall_sequence,flow.Sequence,1_0_3_3_0_1_0,2024-02-22T14:50:44.985Z,,,,,4,1,,,,,,,,,,,,,,,,,2,,,,1467.7000000000000,completion,NA,NA,,,,,196,102,,,,,,https://memcog.fernuni.ch/studies/prm_wm_s1/images/mug05.png,https://memcog.fernuni.ch/studies/prm_wm_s1/images/basketball01.png,,,,,,,,,,222222,yes,,,,,1,,,,,,,,,,3,4,ongoing,30382,30379,28895.3,28903,28911.3,30394.78,4,1,practice,,,,
Recall_loop,flow.Loop,1_0_3_3_0_1,2024-02-22T14:50:44.985Z,,,,,4,,,,,,,,,,,,,,,,,,2,,,,1467.7000000000000,completion,,,,,,,,,,,,,,,,,,,,,,,,,222222,yes,,,,,1,,,,,,,,,,3,,,30383,30379,28895.3,28903,28911.3,30394.78,,,,,,,
Set_feedback,html.Screen,1_0_3_3_0_2,2024-02-22T14:50:44.985Z,,,,,4,,,,,,,,,,,,,,,,,,2,,,,NaN,skipped,,,,,,,,,,,,,,,,,,,,,,,,,222222,yes,,,,,1,,,,,,,,,,3,,,30383,30379,,30383,,30394.78,,,,,,,
Block_break_screen,html.Screen,1_0_3_3_0_3,2024-02-22T14:50:44.986Z,,,,,4,,,,,,,,,,,,,,,,,,2,,,,NaN,skipped,,,,,,,,,,,,,,,,,,,,,,,,,222222,yes,,,,,1,,,,,,,,,,3,,,30383,30379,,30383,,30394.78,,,,,,,
Task_sequence,flow.Sequence,1_0_3_3_0,2024-02-22T14:50:44.986Z,,,,,4,,,,,,,,,,,,,,,,,,2,,,,3467.0600000000000,completion,,,,,,,,,,,,,,,,,,,,,,,,,222222,yes,,,,,1,,,,,,,,,,3,,,30383,30379,26895.28,26892,26911.94,30394.78,,,,,,,
Repetition loop,flow.Loop,1_0_3_3,2024-02-22T14:50:44.986Z,,,,,4,,,,,,,,,,,,,,,,,,2,,,,3467.0600000000000,completion,,,,,,,,,,,,,,,,,,,,,,,,,222222,yes,,,,,,,,,,,,,,,3,,,30383,30379,26895.28,26892,26911.94,30394.78,,,,,,,
Encoding_screen_v1_animal,html.Screen,1_0_3_4_0_0_0_0,2024-02-22T14:50:46.981Z,,,,,5,1,,,,,,,,,,,,,,,,,2,509.02076743830600,,,2000.5400000000000,timeout,NA,NA,,,,,45,179,,,,,,https://memcog.fernuni.ch/studies/prm_wm_s1/images/safe.png,https://memcog.fernuni.ch/studies/prm_wm_s1/images/jarofapplesauce.png,,,,,178.15726860340700,NaN,NaN,165.4317494174490,,222222,yes,254.51038371915300,253.51038371915300,234.51038371915300,233.51038371915300,1,,,,,,,,,,4,5,ongoing,32379,32378.64,30378.62,30387,30394.78,32395.32,5,1,practice,,,,
Encoding_screen_v2_animal,html.Screen,1_0_3_4_0_0_0_1,2024-02-22T14:50:46.983Z,,,,,5,1,,,,,,,,,,,,,,,,,2,,,,NaN,skipped,NA,NA,,,,,45,179,,,,,,https://memcog.fernuni.ch/studies/prm_wm_s1/images/safe.png,https://memcog.fernuni.ch/studies/prm_wm_s1/images/jarofapplesauce.png,,,,,,,,,,222222,yes,,,,,1,,,,,,,,,,4,5,ongoing,32381,32378.64,,32380,,32395.32,5,1,practice,,,,
Encoding_screen_v3_hat,html.Screen,1_0_3_4_0_0_0_2,2024-02-22T14:50:46.984Z,,,,,5,1,,,,,,,,,,,,,,,,,2,,,,NaN,skipped,NA,NA,,,,,45,179,,,,,,https://memcog.fernuni.ch/studies/prm_wm_s1/images/safe.png,https://memcog.fernuni.ch/studies/prm_wm_s1/images/jarofapplesauce.png,,,,,,,,,,222222,yes,,,,,1,,,,,,,,,,4,5,ongoing,32381,32378.64,,32381,,32395.32,5,1,practice,,,,
Encoding_screen_v4_hat,html.Screen,1_0_3_4_0_0_0_3,2024-02-22T14:50:46.984Z,,,,,5,1,,,,,,,,,,,,,,,,,2,,,,NaN,skipped,NA,NA,,,,,45,179,,,,,,https://memcog.fernuni.ch/studies/prm_wm_s1/images/safe.png,https://memcog.fernuni.ch/studies/prm_wm_s1/images/jarofapplesauce.png,,,,,,,,,,222222,yes,,,,,1,,,,,,,,,,4,5,ongoing,32382,32378.64,,32382,,32395.32,5,1,practice,,,,
Encoding_screen_v5_instrument,html.Screen,1_0_3_4_0_0_0_4,2024-02-22T14:50:46.985Z,,,,,5,1,,,,,,,,,,,,,,,,,2,,,,NaN,skipped,NA,NA,,,,,45,179,,,,,,https://memcog.fernuni.ch/studies/prm_wm_s1/images/safe.png,https://memcog.fernuni.ch/studies/prm_wm_s1/images/jarofapplesauce.png,,,,,,,,,,222222,yes,,,,,1,,,,,,,,,,4,5,ongoing,32383,32378.64,,32383,,32395.32,5,1,practice,,,,
Encoding_screen_v6_instrument,html.Screen,1_0_3_4_0_0_0_5,2024-02-22T14:50:46.986Z,,,,,5,1,,,,,,,,,,,,,,,,,2,,,,NaN,skipped,NA,NA,,,,,45,179,,,,,,https://memcog.fernuni.ch/studies/prm_wm_s1/images/safe.png,https://memcog.fernuni.ch/studies/prm_wm_s1/images/jarofapplesauce.png,,,,,,,,,,222222,yes,,,,,1,,,,,,,,,,4,5,ongoing,32383,32378.64,,32383,,32395.32,5,1,practice,,,,
Encoding_sequence,flow.Sequence,1_0_3_4_0_0_0,2024-02-22T14:50:46.986Z,,,,,5,1,,,,,,,,,,,,,,,,,2,,,,1983.8600000000000,completion,NA,NA,,,,,45,179,,,,,,https://memcog.fernuni.ch/studies/prm_wm_s1/images/safe.png,https://memcog.fernuni.ch/studies/prm_wm_s1/images/jarofapplesauce.png,,,,,,,,,,222222,yes,,,,,1,,,,,,,,,,4,5,ongoing,32383,32378.64,30378.62,30386,30394.78,32395.32,5,1,practice,,,,
Encoding_loop,flow.Loop,1_0_3_4_0_0,2024-02-22T14:50:46.986Z,,,,,5,,,,,,,,,,,,,,,,,,2,,,,1983.8600000000000,completion,,,,,,,,,,,,,,,,,,,,,,,,,222222,yes,,,,,1,,,,,,,,,,4,,,32383,32378.64,30378.62,30386,30394.78,32395.32,,,,,,,
Location_recall,html.Screen,1_0_3_4_0_1_0_0,2024-02-22T14:50:46.986Z,,,,,5,1,,,,,,,,,,,,,,,,,2,,,,NaN,skipped,NA,NA,,,,,45,179,,,,,,https://memcog.fernuni.ch/studies/prm_wm_s1/images/safe.png,https://memcog.fernuni.ch/studies/prm_wm_s1/images/jarofapplesauce.png,,,,,,,,,,222222,yes,,,,,1,,,,,,,,,,4,5,ongoing,32384,32378.64,,32384,,32395.32,5,1,practice,,,,
Color_recall_v1_animal,html.Screen,1_0_3_4_0_1_0_1,2024-02-22T14:50:48.301Z,,,,,5,1,,-58.43174941744930,270.5682505825510,104.49260546570000,104.49260546570000,45,-59.492605465699600,-161.67901458878500,,,,,,,,,2,,,,1301.6800000000000,response,NA,NA,,,,,45,179,,,,,,https://memcog.fernuni.ch/studies/prm_wm_s1/images/safe.png,https://memcog.fernuni.ch/studies/prm_wm_s1/images/jarofapplesauce.png,,,,,,,,,,222222,yes,,,,,1,continue,click button,,,,,,,,4,5,ongoing,33699,33697,32378.64,32384,32395.32,33712,5,1,practice,,,,
Color_recall_v2_animal,html.Screen,1_0_3_4_0_1_0_2,2024-02-22T14:50:48.303Z,,,,,5,1,,,,,,,,,,,,,,,,,2,,,,NaN,skipped,NA,NA,,,,,45,179,,,,,,https://memcog.fernuni.ch/studies/prm_wm_s1/images/safe.png,https://memcog.fernuni.ch/studies/prm_wm_s1/images/jarofapplesauce.png,,,,,,,,,,222222,yes,,,,,1,,,,,,,,,,4,5,ongoing,33700,33697,,33700,,33712,5,1,practice,,,,
Color_recall_v3_hat,html.Screen,1_0_3_4_0_1_0_3,2024-02-22T14:50:48.303Z,,,,,5,1,,,,,,,,,,,,,,,,,2,,,,NaN,skipped,NA,NA,,,,,45,179,,,,,,https://memcog.fernuni.ch/studies/prm_wm_s1/images/safe.png,https://memcog.fernuni.ch/studies/prm_wm_s1/images/jarofapplesauce.png,,,,,,,,,,222222,yes,,,,,1,,,,,,,,,,4,5,ongoing,33701,33697,,33701,,33712,5,1,practice,,,,
Color_recall_v4_hat,html.Screen,1_0_3_4_0_1_0_4,2024-02-22T14:50:48.304Z,,,,,5,1,,,,,,,,,,,,,,,,,2,,,,NaN,skipped,NA,NA,,,,,45,179,,,,,,https://memcog.fernuni.ch/studies/prm_wm_s1/images/safe.png,https://memcog.fernuni.ch/studies/prm_wm_s1/images/jarofapplesauce.png,,,,,,,,,,222222,yes,,,,,1,,,,,,,,,,4,5,ongoing,33702,33697,,33702,,33712,5,1,practice,,,,
Color_recall_v5_instrument,html.Screen,1_0_3_4_0_1_0_5,2024-02-22T14:50:48.304Z,,,,,5,1,,,,,,,,,,,,,,,,,2,,,,NaN,skipped,NA,NA,,,,,45,179,,,,,,https://memcog.fernuni.ch/studies/prm_wm_s1/images/safe.png,https://memcog.fernuni.ch/studies/prm_wm_s1/images/jarofapplesauce.png,,,,,,,,,,222222,yes,,,,,1,,,,,,,,,,4,5,ongoing,33702,33697,,33702,,33712,5,1,practice,,,,
Color_recall_v6_instrument,html.Screen,1_0_3_4_0_1_0_6,2024-02-22T14:50:48.305Z,,,,,5,1,,,,,,,,,,,,,,,,,2,,,,NaN,skipped,NA,NA,,,,,45,179,,,,,,https://memcog.fernuni.ch/studies/prm_wm_s1/images/safe.png,https://memcog.fernuni.ch/studies/prm_wm_s1/images/jarofapplesauce.png,,,,,,,,,,222222,yes,,,,,1,,,,,,,,,,4,5,ongoing,33702,33697,,33702,,33712,5,1,practice,,,,
Location_recall,html.Screen,1_0_3_4_0_1_0_7,2024-02-22T14:50:48.305Z,,,,,5,1,,,,,,,,,,,,,,,,,2,,,,NaN,skipped,NA,NA,,,,,45,179,,,,,,https://memcog.fernuni.ch/studies/prm_wm_s1/images/safe.png,https://memcog.fernuni.ch/studies/prm_wm_s1/images/jarofapplesauce.png,,,,,,,,,,222222,yes,,,,,1,,,,,,,,,,4,5,ongoing,33704,33697,,33703,,33712,5,1,practice,,,,
Recall_sequence,flow.Sequence,1_0_3_4_0_1_0,2024-02-22T14:50:48.305Z,,,,,5,1,,,,,,,,,,,,,,,,,2,,,,1301.6800000000000,completion,NA,NA,,,,,45,179,,,,,,https://memcog.fernuni.ch/studies/prm_wm_s1/images/safe.png,https://memcog.fernuni.ch/studies/prm_wm_s1/images/jarofapplesauce.png,,,,,,,,,,222222,yes,,,,,1,,,,,,,,,,4,5,ongoing,33704,33697,32378.64,32383,32395.32,33712,5,1,practice,,,,
Recall_loop,flow.Loop,1_0_3_4_0_1,2024-02-22T14:50:48.305Z,,,,,5,,,,,,,,,,,,,,,,,,2,,,,1301.6800000000000,completion,,,,,,,,,,,,,,,,,,,,,,,,,222222,yes,,,,,1,,,,,,,,,,4,,,33704,33697,32378.64,32383,32395.32,33712,,,,,,,
Set_feedback,html.Screen,1_0_3_4_0_2,2024-02-22T14:50:48.306Z,,,,,5,,,,,,,,,,,,,,,,,,2,,,,NaN,skipped,,,,,,,,,,,,,,,,,,,,,,,,,222222,yes,,,,,1,,,,,,,,,,4,,,33704,33697,,33704,,33712,,,,,,,
Block_break_screen,html.Screen,1_0_3_4_0_3,2024-02-22T14:50:48.306Z,,,,,5,,,,,,,,,,,,,,,,,,2,,,,NaN,skipped,,,,,,,,,,,,,,,,,,,,,,,,,222222,yes,,,,,1,,,,,,,,,,4,,,33704,33697,,33704,,33712,,,,,,,
Task_sequence,flow.Sequence,1_0_3_4_0,2024-02-22T14:50:48.306Z,,,,,5,,,,,,,,,,,,,,,,,,2,,,,3302.220000000000,completion,,,,,,,,,,,,,,,,,,,,,,,,,222222,yes,,,,,1,,,,,,,,,,4,,,33704,33697,30378.62,30386,30394.78,33712,,,,,,,
Repetition loop,flow.Loop,1_0_3_4,2024-02-22T14:50:48.306Z,,,,,5,,,,,,,,,,,,,,,,,,2,,,,3302.220000000000,completion,,,,,,,,,,,,,,,,,,,,,,,,,222222,yes,,,,,,,,,,,,,,,4,,,33704,33697,30378.62,30386,30394.78,33712,,,,,,,
practice (working) 5,flow.Loop,1_0_3,2024-02-22T14:50:48.306Z,,,,,,,,,,,,,,,,,,,,,,,2,,,,19735.120000000000,completion,,,,,,,,,,,,,,,,,,,,,,,,,222222,yes,,,,,,,,,,,,,,,,,,33704,33697,13945.2,13960,13961.88,33712,,,,,,,
Instruction_baseline,html.Page,1_0_4,2024-02-22T14:50:49.992Z,,,,,,,,,,,,,,,,,,,,,,,2,,,,1676,form submission,,,,,,,,,,,,,,,,,,,,,,,,,222222,,,,,,,,,,,,,,,,,,,35390,35388,33695.32,33704,33712,35461.08,,,,,,,
Encoding_screen_v1,html.Screen,1_0_5_0_0_0_0_0,2024-02-22T14:50:52.047Z,,,,,6,1,,,,,,,,,,,,,,,,,2,509.02076743830600,,,2000.5,timeout,NA,NA,,,,,39,284,,,,,,https://memcog.fernuni.ch/studies/prm_wm_s1/images/donotwalksign.png,https://memcog.fernuni.ch/studies/prm_wm_s1/images/filingcabinet.png,,,,,178.15726860340700,NaN,NaN,165.4317494174490,,222222,no,254.51038371915300,253.51038371915300,234.51038371915300,233.51038371915300,1,,,,,,,,,,0,1,ongoing,37446,37445.34,35445.06,35446,35461.08,37461.58,6,1,ongoing,,,,
Encoding_screen_v2,html.Screen,1_0_5_0_0_0_0_1,2024-02-22T14:50:52.050Z,,,,,6,1,,,,,,,,,,,,,,,,,2,,,,NaN,skipped,NA,NA,,,,,39,284,,,,,,https://memcog.fernuni.ch/studies/prm_wm_s1/images/donotwalksign.png,https://memcog.fernuni.ch/studies/prm_wm_s1/images/filingcabinet.png,,,,,,,,,,222222,no,,,,,1,,,,,,,,,,0,1,ongoing,37447,37445.34,,37447,,37461.58,6,1,ongoing,,,,
Encoding_screen_v3_hat,html.Screen,1_0_5_0_0_0_0_2,2024-02-22T14:50:52.050Z,,,,,6,1,,,,,,,,,,,,,,,,,2,,,,NaN,skipped,NA,NA,,,,,39,284,,,,,,https://memcog.fernuni.ch/studies/prm_wm_s1/images/donotwalksign.png,https://memcog.fernuni.ch/studies/prm_wm_s1/images/filingcabinet.png,,,,,,,,,,222222,no,,,,,1,,,,,,,,,,0,1,ongoing,37448,37445.34,,37448,,37461.58,6,1,ongoing,,,,
Encoding_screen_v4_hat,html.Screen,1_0_5_0_0_0_0_3,2024-02-22T14:50:52.051Z,,,,,6,1,,,,,,,,,,,,,,,,,2,,,,NaN,skipped,NA,NA,,,,,39,284,,,,,,https://memcog.fernuni.ch/studies/prm_wm_s1/images/donotwalksign.png,https://memcog.fernuni.ch/studies/prm_wm_s1/images/filingcabinet.png,,,,,,,,,,222222,no,,,,,1,,,,,,,,,,0,1,ongoing,37449,37445.34,,37448,,37461.58,6,1,ongoing,,,,
Encoding_screen_v5_wheel,html.Screen,1_0_5_0_0_0_0_4,2024-02-22T14:50:52.051Z,,,,,6,1,,,,,,,,,,,,,,,,,2,,,,NaN,skipped,NA,NA,,,,,39,284,,,,,,https://memcog.fernuni.ch/studies/prm_wm_s1/images/donotwalksign.png,https://memcog.fernuni.ch/studies/prm_wm_s1/images/filingcabinet.png,,,,,,,,,,222222,no,,,,,1,,,,,,,,,,0,1,ongoing,37449,37445.34,,37449,,37461.58,6,1,ongoing,,,,
Encoding_screen_v6_wheel,html.Screen,1_0_5_0_0_0_0_5,2024-02-22T14:50:52.052Z,,,,,6,1,,,,,,,,,,,,,,,,,2,,,,NaN,skipped,NA,NA,,,,,39,284,,,,,,https://memcog.fernuni.ch/studies/prm_wm_s1/images/donotwalksign.png,https://memcog.fernuni.ch/studies/prm_wm_s1/images/filingcabinet.png,,,,,,,,,,222222,no,,,,,1,,,,,,,,,,0,1,ongoing,37450,37445.34,,37450,,37461.58,6,1,ongoing,,,,
Encoding_sequence,flow.Sequence,1_0_5_0_0_0_0,2024-02-22T14:50:52.052Z,,,,,6,1,,,,,,,,,,,,,,,,,2,,,,1984.2599999999900,completion,NA,NA,,,,,39,284,,,,,,https://memcog.fernuni.ch/studies/prm_wm_s1/images/donotwalksign.png,https://memcog.fernuni.ch/studies/prm_wm_s1/images/filingcabinet.png,,,,,,,,,,222222,no,,,,,1,,,,,,,,,,0,1,ongoing,37450,37445.34,35445.06,35446,35461.08,37461.58,6,1,ongoing,,,,
Encoding_loop,flow.Loop,1_0_5_0_0_0,2024-02-22T14:50:52.052Z,,,,,6,,,,,,,,,,,,,,,,,,2,,,,1984.2599999999900,completion,,,,,,,,,,,,,,,,,,,,,,,,,222222,no,,,,,1,,,,,,,,,,0,,,37450,37445.34,35445.06,35446,35461.08,37461.58,,,,,,,
Location_recall,html.Screen,1_0_5_0_0_1_0_0,2024-02-22T14:50:52.053Z,,,,,6,1,,,,,,,,,,,,,,,,,2,,,,NaN,skipped,NA,NA,,,,,39,284,,,,,,https://memcog.fernuni.ch/studies/prm_wm_s1/images/donotwalksign.png,https://memcog.fernuni.ch/studies/prm_wm_s1/images/filingcabinet.png,,,,,,,,,,222222,no,,,,,1,,,,,,,,,,0,1,ongoing,37451,37445.34,,37450,,37461.58,6,1,ongoing,,,,
Color_recall_v1,html.Screen,1_0_5_0_0_1_0_1,2024-02-22T14:50:53.752Z,,,,,6,1,,170.5682505825510,306.5682505825510,160.98111397598200,-160.98111397598200,39,-160.01888602401800,139.07177428418400,,,,,,,,,2,,,,1685.4200000000000,response,NA,NA,,,,,39,284,,,,,,https://memcog.fernuni.ch/studies/prm_wm_s1/images/donotwalksign.png,https://memcog.fernuni.ch/studies/prm_wm_s1/images/filingcabinet.png,,,,,,,,,,222222,no,,,,,1,continue,click button,,,,,,,,0,1,ongoing,39150,39147,37445.34,37452,37461.58,39178.42,6,1,ongoing,,,,
Color_recall_v2,html.Screen,1_0_5_0_0_1_0_2,2024-02-22T14:50:53.753Z,,,,,6,1,,,,,,,,,,,,,,,,,2,,,,NaN,skipped,NA,NA,,,,,39,284,,,,,,https://memcog.fernuni.ch/studies/prm_wm_s1/images/donotwalksign.png,https://memcog.fernuni.ch/studies/prm_wm_s1/images/filingcabinet.png,,,,,,,,,,222222,no,,,,,1,,,,,,,,,,0,1,ongoing,39151,39147,,39151,,39178.42,6,1,ongoing,,,,
Color_recall_v3_hat,html.Screen,1_0_5_0_0_1_0_3,2024-02-22T14:50:53.754Z,,,,,6,1,,,,,,,,,,,,,,,,,2,,,,NaN,skipped,NA,NA,,,,,39,284,,,,,,https://memcog.fernuni.ch/studies/prm_wm_s1/images/donotwalksign.png,https://memcog.fernuni.ch/studies/prm_wm_s1/images/filingcabinet.png,,,,,,,,,,222222,no,,,,,1,,,,,,,,,,0,1,ongoing,39151,39147,,39151,,39178.42,6,1,ongoing,,,,
Color_recall_v4_hat,html.Screen,1_0_5_0_0_1_0_4,2024-02-22T14:50:53.754Z,,,,,6,1,,,,,,,,,,,,,,,,,2,,,,NaN,skipped,NA,NA,,,,,39,284,,,,,,https://memcog.fernuni.ch/studies/prm_wm_s1/images/donotwalksign.png,https://memcog.fernuni.ch/studies/prm_wm_s1/images/filingcabinet.png,,,,,,,,,,222222,no,,,,,1,,,,,,,,,,0,1,ongoing,39152,39147,,39152,,39178.42,6,1,ongoing,,,,
Color_recall_v5_wheel,html.Screen,1_0_5_0_0_1_0_5,2024-02-22T14:50:53.754Z,,,,,6,1,,,,,,,,,,,,,,,,,2,,,,NaN,skipped,NA,NA,,,,,39,284,,,,,,https://memcog.fernuni.ch/studies/prm_wm_s1/images/donotwalksign.png,https://memcog.fernuni.ch/studies/prm_wm_s1/images/filingcabinet.png,,,,,,,,,,222222,no,,,,,1,,,,,,,,,,0,1,ongoing,39152,39147,,39152,,39178.42,6,1,ongoing,,,,
Color_recall_v6_wheel,html.Screen,1_0_5_0_0_1_0_6,2024-02-22T14:50:53.755Z,,,,,6,1,,,,,,,,,,,,,,,,,2,,,,NaN,skipped,NA,NA,,,,,39,284,,,,,,https://memcog.fernuni.ch/studies/prm_wm_s1/images/donotwalksign.png,https://memcog.fernuni.ch/studies/prm_wm_s1/images/filingcabinet.png,,,,,,,,,,222222,no,,,,,1,,,,,,,,,,0,1,ongoing,39153,39147,,39153,,39178.42,6,1,ongoing,,,,
Location_recall,html.Screen,1_0_5_0_0_1_0_7,2024-02-22T14:50:53.755Z,,,,,6,1,,,,,,,,,,,,,,,,,2,,,,NaN,skipped,NA,NA,,,,,39,284,,,,,,https://memcog.fernuni.ch/studies/prm_wm_s1/images/donotwalksign.png,https://memcog.fernuni.ch/studies/prm_wm_s1/images/filingcabinet.png,,,,,,,,,,222222,no,,,,,1,,,,,,,,,,0,1,ongoing,39153,39147,,39153,,39178.42,6,1,ongoing,,,,
Recall_sequence,flow.Sequence,1_0_5_0_0_1_0,2024-02-22T14:50:53.755Z,,,,,6,1,,,,,,,,,,,,,,,,,2,,,,1685.4200000000000,completion,NA,NA,,,,,39,284,,,,,,https://memcog.fernuni.ch/studies/prm_wm_s1/images/donotwalksign.png,https://memcog.fernuni.ch/studies/prm_wm_s1/images/filingcabinet.png,,,,,,,,,,222222,no,,,,,1,,,,,,,,,,0,1,ongoing,39153,39147,37445.34,37450,37461.58,39178.42,6,1,ongoing,,,,
Recall_loop,flow.Loop,1_0_5_0_0_1,2024-02-22T14:50:53.756Z,,,,,6,,,,,,,,,,,,,,,,,,2,,,,1685.4200000000000,completion,,,,,,,,,,,,,,,,,,,,,,,,,222222,no,,,,,1,,,,,,,,,,0,,,39153,39147,37445.34,37450,37461.58,39178.42,,,,,,,
Set_feedback,html.Screen,1_0_5_0_0_2,2024-02-22T14:50:53.756Z,,,,,6,,,,,,,,,,,,,,,,,,2,,,,NaN,skipped,,,,,,,,,,,,,,,,,,,,,,,,,222222,no,,,,,1,,,,,,,,,,0,,,39154,39147,,39154,,39178.42,,,,,,,
Block_break_screen,html.Screen,1_0_5_0_0_3,2024-02-22T14:50:53.756Z,,,,,6,,,,,,,,,,,,,,,,,,2,,,,NaN,skipped,,,,,,,,,,,,,,,,,,,,,,,,,222222,no,,,,,1,,,,,,,,,,0,,,39154,39147,,39154,,39178.42,,,,,,,
Task_sequence,flow.Sequence,1_0_5_0_0,2024-02-22T14:50:53.757Z,,,,,6,,,,,,,,,,,,,,,,,,2,,,,3685.9200000000000,completion,,,,,,,,,,,,,,,,,,,,,,,,,222222,no,,,,,1,,,,,,,,,,0,,,39154,39147,35445.06,35446,35461.08,39178.42,,,,,,,
Repetition loop,flow.Loop,1_0_5_0,2024-02-22T14:50:53.757Z,,,,,6,,,,,,,,,,,,,,,,,,2,,,,3685.9200000000000,completion,,,,,,,,,,,,,,,,,,,,,,,,,222222,no,,,,,,,,,,,,,,,0,,,39154,39147,35445.06,35446,35461.08,39178.42,,,,,,,
Encoding_screen_v1,html.Screen,1_0_5_1_0_0_0_0,2024-02-22T14:50:55.765Z,,,,,7,1,,,,,,,,,,,,,,,,,2,509.02076743830600,,,1999.8200000000000,timeout,NA,NA,,,,,114,209,,,,,,https://memcog.fernuni.ch/studies/prm_wm_s1/images/church.png,https://memcog.fernuni.ch/studies/prm_wm_s1/images/barbecue03.png,,,,,178.15726860340700,NaN,NaN,165.4317494174490,,222222,no,254.51038371915300,253.51038371915300,234.51038371915300,233.51038371915300,1,,,,,,,,,,1,2,ongoing,41163,41162.08,39162.02,39161,39178.42,41178.24,7,1,ongoing,,,,
Encoding_screen_v2,html.Screen,1_0_5_1_0_0_0_1,2024-02-22T14:50:55.768Z,,,,,7,1,,,,,,,,,,,,,,,,,2,,,,NaN,skipped,NA,NA,,,,,114,209,,,,,,https://memcog.fernuni.ch/studies/prm_wm_s1/images/church.png,https://memcog.fernuni.ch/studies/prm_wm_s1/images/barbecue03.png,,,,,,,,,,222222,no,,,,,1,,,,,,,,,,1,2,ongoing,41165,41162.08,,41165,,41178.24,7,1,ongoing,,,,
Encoding_screen_v3_hat,html.Screen,1_0_5_1_0_0_0_2,2024-02-22T14:50:55.769Z,,,,,7,1,,,,,,,,,,,,,,,,,2,,,,NaN,skipped,NA,NA,,,,,114,209,,,,,,https://memcog.fernuni.ch/studies/prm_wm_s1/images/church.png,https://memcog.fernuni.ch/studies/prm_wm_s1/images/barbecue03.png,,,,,,,,,,222222,no,,,,,1,,,,,,,,,,1,2,ongoing,41166,41162.08,,41166,,41178.24,7,1,ongoing,,,,
Encoding_screen_v4_hat,html.Screen,1_0_5_1_0_0_0_3,2024-02-22T14:50:55.769Z,,,,,7,1,,,,,,,,,,,,,,,,,2,,,,NaN,skipped,NA,NA,,,,,114,209,,,,,,https://memcog.fernuni.ch/studies/prm_wm_s1/images/church.png,https://memcog.fernuni.ch/studies/prm_wm_s1/images/barbecue03.png,,,,,,,,,,222222,no,,,,,1,,,,,,,,,,1,2,ongoing,41167,41162.08,,41167,,41178.24,7,1,ongoing,,,,
Encoding_screen_v5_wheel,html.Screen,1_0_5_1_0_0_0_4,2024-02-22T14:50:55.770Z,,,,,7,1,,,,,,,,,,,,,,,,,2,,,,NaN,skipped,NA,NA,,,,,114,209,,,,,,https://memcog.fernuni.ch/studies/prm_wm_s1/images/church.png,https://memcog.fernuni.ch/studies/prm_wm_s1/images/barbecue03.png,,,,,,,,,,222222,no,,,,,1,,,,,,,,,,1,2,ongoing,41168,41162.08,,41168,,41178.24,7,1,ongoing,,,,
Encoding_screen_v6_wheel,html.Screen,1_0_5_1_0_0_0_5,2024-02-22T14:50:55.771Z,,,,,7,1,,,,,,,,,,,,,,,,,2,,,,NaN,skipped,NA,NA,,,,,114,209,,,,,,https://memcog.fernuni.ch/studies/prm_wm_s1/images/church.png,https://memcog.fernuni.ch/studies/prm_wm_s1/images/barbecue03.png,,,,,,,,,,222222,no,,,,,1,,,,,,,,,,1,2,ongoing,41169,41162.08,,41169,,41178.24,7,1,ongoing,,,,
Encoding_sequence,flow.Sequence,1_0_5_1_0_0_0,2024-02-22T14:50:55.771Z,,,,,7,1,,,,,,,,,,,,,,,,,2,,,,1983.6600000000000,completion,NA,NA,,,,,114,209,,,,,,https://memcog.fernuni.ch/studies/prm_wm_s1/images/church.png,https://memcog.fernuni.ch/studies/prm_wm_s1/images/barbecue03.png,,,,,,,,,,222222,no,,,,,1,,,,,,,,,,1,2,ongoing,41169,41162.08,39162.02,39160,39178.42,41178.24,7,1,ongoing,,,,
Encoding_loop,flow.Loop,1_0_5_1_0_0,2024-02-22T14:50:55.771Z,,,,,7,,,,,,,,,,,,,,,,,,2,,,,1983.6600000000000,completion,,,,,,,,,,,,,,,,,,,,,,,,,222222,no,,,,,1,,,,,,,,,,1,,,41169,41162.08,39162.02,39160,39178.42,41178.24,,,,,,,
Location_recall,html.Screen,1_0_5_1_0_1_0_0,2024-02-22T14:50:55.772Z,,,,,7,1,,,,,,,,,,,,,,,,,2,,,,NaN,skipped,NA,NA,,,,,114,209,,,,,,https://memcog.fernuni.ch/studies/prm_wm_s1/images/church.png,https://memcog.fernuni.ch/studies/prm_wm_s1/images/barbecue03.png,,,,,,,,,,222222,no,,,,,1,,,,,,,,,,1,2,ongoing,41170,41162.08,,41170,,41178.24,7,1,ongoing,,,,
Color_recall_v1,html.Screen,1_0_5_1_0_1_0_1,2024-02-22T14:50:57.201Z,,,,,7,1,,-155.4317494174490,120.56825058255100,62.02315062644580,-62.02315062644580,114,176.02315062644600,33.82384732271840,,,,,,,,,2,,,,1417.760000000000,response,NA,NA,,,,,114,209,,,,,,https://memcog.fernuni.ch/studies/prm_wm_s1/images/church.png,https://memcog.fernuni.ch/studies/prm_wm_s1/images/barbecue03.png,,,,,,,,,,222222,no,,,,,1,continue,click button,,,,,,,,1,2,ongoing,42598,42596,41162.08,41170,41178.24,42628.72,7,1,ongoing,,,,
Color_recall_v2,html.Screen,1_0_5_1_0_1_0_2,2024-02-22T14:50:57.202Z,,,,,7,1,,,,,,,,,,,,,,,,,2,,,,NaN,skipped,NA,NA,,,,,114,209,,,,,,https://memcog.fernuni.ch/studies/prm_wm_s1/images/church.png,https://memcog.fernuni.ch/studies/prm_wm_s1/images/barbecue03.png,,,,,,,,,,222222,no,,,,,1,,,,,,,,,,1,2,ongoing,42601,42596,,42600,,42628.72,7,1,ongoing,,,,
Color_recall_v3_hat,html.Screen,1_0_5_1_0_1_0_3,2024-02-22T14:50:57.203Z,,,,,7,1,,,,,,,,,,,,,,,,,2,,,,NaN,skipped,NA,NA,,,,,114,209,,,,,,https://memcog.fernuni.ch/studies/prm_wm_s1/images/church.png,https://memcog.fernuni.ch/studies/prm_wm_s1/images/barbecue03.png,,,,,,,,,,222222,no,,,,,1,,,,,,,,,,1,2,ongoing,42601,42596,,42601,,42628.72,7,1,ongoing,,,,
Color_recall_v4_hat,html.Screen,1_0_5_1_0_1_0_4,2024-02-22T14:50:57.204Z,,,,,7,1,,,,,,,,,,,,,,,,,2,,,,NaN,skipped,NA,NA,,,,,114,209,,,,,,https://memcog.fernuni.ch/studies/prm_wm_s1/images/church.png,https://memcog.fernuni.ch/studies/prm_wm_s1/images/barbecue03.png,,,,,,,,,,222222,no,,,,,1,,,,,,,,,,1,2,ongoing,42601,42596,,42601,,42628.72,7,1,ongoing,,,,
Color_recall_v5_wheel,html.Screen,1_0_5_1_0_1_0_5,2024-02-22T14:50:57.205Z,,,,,7,1,,,,,,,,,,,,,,,,,2,,,,NaN,skipped,NA,NA,,,,,114,209,,,,,,https://memcog.fernuni.ch/studies/prm_wm_s1/images/church.png,https://memcog.fernuni.ch/studies/prm_wm_s1/images/barbecue03.png,,,,,,,,,,222222,no,,,,,1,,,,,,,,,,1,2,ongoing,42602,42596,,42602,,42628.72,7,1,ongoing,,,,
Color_recall_v6_wheel,html.Screen,1_0_5_1_0_1_0_6,2024-02-22T14:50:57.205Z,,,,,7,1,,,,,,,,,,,,,,,,,2,,,,NaN,skipped,NA,NA,,,,,114,209,,,,,,https://memcog.fernuni.ch/studies/prm_wm_s1/images/church.png,https://memcog.fernuni.ch/studies/prm_wm_s1/images/barbecue03.png,,,,,,,,,,222222,no,,,,,1,,,,,,,,,,1,2,ongoing,42602,42596,,42602,,42628.72,7,1,ongoing,,,,
Location_recall,html.Screen,1_0_5_1_0_1_0_7,2024-02-22T14:50:57.206Z,,,,,7,1,,,,,,,,,,,,,,,,,2,,,,NaN,skipped,NA,NA,,,,,114,209,,,,,,https://memcog.fernuni.ch/studies/prm_wm_s1/images/church.png,https://memcog.fernuni.ch/studies/prm_wm_s1/images/barbecue03.png,,,,,,,,,,222222,no,,,,,1,,,,,,,,,,1,2,ongoing,42603,42596,,42603,,42628.72,7,1,ongoing,,,,
Recall_sequence,flow.Sequence,1_0_5_1_0_1_0,2024-02-22T14:50:57.206Z,,,,,7,1,,,,,,,,,,,,,,,,,2,,,,1417.760000000000,completion,NA,NA,,,,,114,209,,,,,,https://memcog.fernuni.ch/studies/prm_wm_s1/images/church.png,https://memcog.fernuni.ch/studies/prm_wm_s1/images/barbecue03.png,,,,,,,,,,222222,no,,,,,1,,,,,,,,,,1,2,ongoing,42603,42596,41162.08,41169,41178.24,42628.72,7,1,ongoing,,,,
Recall_loop,flow.Loop,1_0_5_1_0_1,2024-02-22T14:50:57.206Z,,,,,7,,,,,,,,,,,,,,,,,,2,,,,1417.760000000000,completion,,,,,,,,,,,,,,,,,,,,,,,,,222222,no,,,,,1,,,,,,,,,,1,,,42603,42596,41162.08,41169,41178.24,42628.72,,,,,,,
Set_feedback,html.Screen,1_0_5_1_0_2,2024-02-22T14:50:57.206Z,,,,,7,,,,,,,,,,,,,,,,,,2,,,,NaN,skipped,,,,,,,,,,,,,,,,,,,,,,,,,222222,no,,,,,1,,,,,,,,,,1,,,42604,42596,,42604,,42628.72,,,,,,,
Block_break_screen,html.Screen,1_0_5_1_0_3,2024-02-22T14:50:57.206Z,,,,,7,,,,,,,,,,,,,,,,,,2,,,,NaN,skipped,,,,,,,,,,,,,,,,,,,,,,,,,222222,no,,,,,1,,,,,,,,,,1,,,42604,42596,,42604,,42628.72,,,,,,,
Task_sequence,flow.Sequence,1_0_5_1_0,2024-02-22T14:50:57.206Z,,,,,7,,,,,,,,,,,,,,,,,,2,,,,3417.5800000000000,completion,,,,,,,,,,,,,,,,,,,,,,,,,222222,no,,,,,1,,,,,,,,,,1,,,42604,42596,39162.02,39160,39178.42,42628.72,,,,,,,
Repetition loop,flow.Loop,1_0_5_1,2024-02-22T14:50:57.206Z,,,,,7,,,,,,,,,,,,,,,,,,2,,,,3417.5800000000000,completion,,,,,,,,,,,,,,,,,,,,,,,,,222222,no,,,,,,,,,,,,,,,1,,,42605,42596,39162.02,39160,39178.42,42628.72,,,,,,,
Encoding_screen_v1,html.Screen,1_0_5_2_0_0_0_0,2024-02-22T14:50:59.216Z,,,,,8,1,,,,,,,,,,,,,,,,,2,509.02076743830600,,,2000,timeout,NA,NA,,,,,35,258,,,,,,https://memcog.fernuni.ch/studies/prm_wm_s1/images/puzzle.png,https://memcog.fernuni.ch/studies/prm_wm_s1/images/chest01.png,,,,,178.15726860340700,NaN,NaN,165.4317494174490,,222222,no,254.51038371915300,253.51038371915300,234.51038371915300,233.51038371915300,1,,,,,,,,,,2,3,ongoing,44613,44612.06,42612.04,42610,42628.72,44628.72,8,1,ongoing,,,,
Encoding_screen_v2,html.Screen,1_0_5_2_0_0_0_1,2024-02-22T14:50:59.218Z,,,,,8,1,,,,,,,,,,,,,,,,,2,,,,NaN,skipped,NA,NA,,,,,35,258,,,,,,https://memcog.fernuni.ch/studies/prm_wm_s1/images/puzzle.png,https://memcog.fernuni.ch/studies/prm_wm_s1/images/chest01.png,,,,,,,,,,222222,no,,,,,1,,,,,,,,,,2,3,ongoing,44616,44612.06,,44616,,44628.72,8,1,ongoing,,,,
Encoding_screen_v3_hat,html.Screen,1_0_5_2_0_0_0_2,2024-02-22T14:50:59.219Z,,,,,8,1,,,,,,,,,,,,,,,,,2,,,,NaN,skipped,NA,NA,,,,,35,258,,,,,,https://memcog.fernuni.ch/studies/prm_wm_s1/images/puzzle.png,https://memcog.fernuni.ch/studies/prm_wm_s1/images/chest01.png,,,,,,,,,,222222,no,,,,,1,,,,,,,,,,2,3,ongoing,44617,44612.06,,44617,,44628.72,8,1,ongoing,,,,
Encoding_screen_v4_hat,html.Screen,1_0_5_2_0_0_0_3,2024-02-22T14:50:59.219Z,,,,,8,1,,,,,,,,,,,,,,,,,2,,,,NaN,skipped,NA,NA,,,,,35,258,,,,,,https://memcog.fernuni.ch/studies/prm_wm_s1/images/puzzle.png,https://memcog.fernuni.ch/studies/prm_wm_s1/images/chest01.png,,,,,,,,,,222222,no,,,,,1,,,,,,,,,,2,3,ongoing,44618,44612.06,,44618,,44628.72,8,1,ongoing,,,,
Encoding_screen_v5_wheel,html.Screen,1_0_5_2_0_0_0_4,2024-02-22T14:50:59.220Z,,,,,8,1,,,,,,,,,,,,,,,,,2,,,,NaN,skipped,NA,NA,,,,,35,258,,,,,,https://memcog.fernuni.ch/studies/prm_wm_s1/images/puzzle.png,https://memcog.fernuni.ch/studies/prm_wm_s1/images/chest01.png,,,,,,,,,,222222,no,,,,,1,,,,,,,,,,2,3,ongoing,44619,44612.06,,44619,,44628.72,8,1,ongoing,,,,
Encoding_screen_v6_wheel,html.Screen,1_0_5_2_0_0_0_5,2024-02-22T14:50:59.222Z,,,,,8,1,,,,,,,,,,,,,,,,,2,,,,NaN,skipped,NA,NA,,,,,35,258,,,,,,https://memcog.fernuni.ch/studies/prm_wm_s1/images/puzzle.png,https://memcog.fernuni.ch/studies/prm_wm_s1/images/chest01.png,,,,,,,,,,222222,no,,,,,1,,,,,,,,,,2,3,ongoing,44619,44612.06,,44619,,44628.72,8,1,ongoing,,,,
Encoding_sequence,flow.Sequence,1_0_5_2_0_0_0,2024-02-22T14:50:59.222Z,,,,,8,1,,,,,,,,,,,,,,,,,2,,,,1983.3400000000000,completion,NA,NA,,,,,35,258,,,,,,https://memcog.fernuni.ch/studies/prm_wm_s1/images/puzzle.png,https://memcog.fernuni.ch/studies/prm_wm_s1/images/chest01.png,,,,,,,,,,222222,no,,,,,1,,,,,,,,,,2,3,ongoing,44619,44612.06,42612.04,42610,42628.72,44628.72,8,1,ongoing,,,,
Encoding_loop,flow.Loop,1_0_5_2_0_0,2024-02-22T14:50:59.222Z,,,,,8,,,,,,,,,,,,,,,,,,2,,,,1983.3400000000000,completion,,,,,,,,,,,,,,,,,,,,,,,,,222222,no,,,,,1,,,,,,,,,,2,,,44619,44612.06,42612.04,42610,42628.72,44628.72,,,,,,,
Location_recall,html.Screen,1_0_5_2_0_1_0_0,2024-02-22T14:50:59.222Z,,,,,8,1,,,,,,,,,,,,,,,,,2,,,,NaN,skipped,NA,NA,,,,,35,258,,,,,,https://memcog.fernuni.ch/studies/prm_wm_s1/images/puzzle.png,https://memcog.fernuni.ch/studies/prm_wm_s1/images/chest01.png,,,,,,,,,,222222,no,,,,,1,,,,,,,,,,2,3,ongoing,44620,44612.06,,44620,,44628.72,8,1,ongoing,,,,
Color_recall_v1,html.Screen,1_0_5_2_0_1_0_1,2024-02-22T14:51:00.506Z,,,,,8,1,,-143.4317494174490,159.5682505825510,111.16972861835600,-111.16972861835600,35,146.16972861835600,14.218180206594600,,,,,,,,,2,,,,1236.2800000000000,response,NA,NA,,,,,35,258,,,,,,https://memcog.fernuni.ch/studies/prm_wm_s1/images/puzzle.png,https://memcog.fernuni.ch/studies/prm_wm_s1/images/chest01.png,,,,,,,,,,222222,no,,,,,1,continue,click button,,,,,,,,2,3,ongoing,45904,45865,44612.06,44620,44628.72,45928.74,8,1,ongoing,,,,
Color_recall_v2,html.Screen,1_0_5_2_0_1_0_2,2024-02-22T14:51:00.507Z,,,,,8,1,,,,,,,,,,,,,,,,,2,,,,NaN,skipped,NA,NA,,,,,35,258,,,,,,https://memcog.fernuni.ch/studies/prm_wm_s1/images/puzzle.png,https://memcog.fernuni.ch/studies/prm_wm_s1/images/chest01.png,,,,,,,,,,222222,no,,,,,1,,,,,,,,,,2,3,ongoing,45904,45865,,45904,,45928.74,8,1,ongoing,,,,
Color_recall_v3_hat,html.Screen,1_0_5_2_0_1_0_3,2024-02-22T14:51:00.507Z,,,,,8,1,,,,,,,,,,,,,,,,,2,,,,NaN,skipped,NA,NA,,,,,35,258,,,,,,https://memcog.fernuni.ch/studies/prm_wm_s1/images/puzzle.png,https://memcog.fernuni.ch/studies/prm_wm_s1/images/chest01.png,,,,,,,,,,222222,no,,,,,1,,,,,,,,,,2,3,ongoing,45904,45865,,45904,,45928.74,8,1,ongoing,,,,
Color_recall_v4_hat,html.Screen,1_0_5_2_0_1_0_4,2024-02-22T14:51:00.507Z,,,,,8,1,,,,,,,,,,,,,,,,,2,,,,NaN,skipped,NA,NA,,,,,35,258,,,,,,https://memcog.fernuni.ch/studies/prm_wm_s1/images/puzzle.png,https://memcog.fernuni.ch/studies/prm_wm_s1/images/chest01.png,,,,,,,,,,222222,no,,,,,1,,,,,,,,,,2,3,ongoing,45905,45865,,45905,,45928.74,8,1,ongoing,,,,
Color_recall_v5_wheel,html.Screen,1_0_5_2_0_1_0_5,2024-02-22T14:51:00.507Z,,,,,8,1,,,,,,,,,,,,,,,,,2,,,,NaN,skipped,NA,NA,,,,,35,258,,,,,,https://memcog.fernuni.ch/studies/prm_wm_s1/images/puzzle.png,https://memcog.fernuni.ch/studies/prm_wm_s1/images/chest01.png,,,,,,,,,,222222,no,,,,,1,,,,,,,,,,2,3,ongoing,45905,45865,,45905,,45928.74,8,1,ongoing,,,,
Color_recall_v6_wheel,html.Screen,1_0_5_2_0_1_0_6,2024-02-22T14:51:00.507Z,,,,,8,1,,,,,,,,,,,,,,,,,2,,,,NaN,skipped,NA,NA,,,,,35,258,,,,,,https://memcog.fernuni.ch/studies/prm_wm_s1/images/puzzle.png,https://memcog.fernuni.ch/studies/prm_wm_s1/images/chest01.png,,,,,,,,,,222222,no,,,,,1,,,,,,,,,,2,3,ongoing,45905,45865,,45905,,45928.74,8,1,ongoing,,,,
Location_recall,html.Screen,1_0_5_2_0_1_0_7,2024-02-22T14:51:00.507Z,,,,,8,1,,,,,,,,,,,,,,,,,2,,,,NaN,skipped,NA,NA,,,,,35,258,,,,,,https://memcog.fernuni.ch/studies/prm_wm_s1/images/puzzle.png,https://memcog.fernuni.ch/studies/prm_wm_s1/images/chest01.png,,,,,,,,,,222222,no,,,,,1,,,,,,,,,,2,3,ongoing,45905,45865,,45905,,45928.74,8,1,ongoing,,,,
Recall_sequence,flow.Sequence,1_0_5_2_0_1_0,2024-02-22T14:51:00.508Z,,,,,8,1,,,,,,,,,,,,,,,,,2,,,,1236.2800000000000,completion,NA,NA,,,,,35,258,,,,,,https://memcog.fernuni.ch/studies/prm_wm_s1/images/puzzle.png,https://memcog.fernuni.ch/studies/prm_wm_s1/images/chest01.png,,,,,,,,,,222222,no,,,,,1,,,,,,,,,,2,3,ongoing,45905,45865,44612.06,44619,44628.72,45928.74,8,1,ongoing,,,,
Recall_loop,flow.Loop,1_0_5_2_0_1,2024-02-22T14:51:00.508Z,,,,,8,,,,,,,,,,,,,,,,,,2,,,,1236.2800000000000,completion,,,,,,,,,,,,,,,,,,,,,,,,,222222,no,,,,,1,,,,,,,,,,2,,,45905,45865,44612.06,44619,44628.72,45928.74,,,,,,,
Set_feedback,html.Screen,1_0_5_2_0_2,2024-02-22T14:51:00.508Z,,,,,8,,,,,,,,,,,,,,,,,,2,,,,NaN,skipped,,,,,,,,,,,,,,,,,,,,,,,,,222222,no,,,,,1,,,,,,,,,,2,,,45906,45865,,45905,,45928.74,,,,,,,
Block_break_screen,html.Screen,1_0_5_2_0_3,2024-02-22T14:51:00.508Z,,,,,8,,,,,,,,,,,,,,,,,,2,,,,NaN,skipped,,,,,,,,,,,,,,,,,,,,,,,,,222222,no,,,,,1,,,,,,,,,,2,,,45906,45865,,45906,,45928.74,,,,,,,
Task_sequence,flow.Sequence,1_0_5_2_0,2024-02-22T14:51:00.508Z,,,,,8,,,,,,,,,,,,,,,,,,2,,,,3236.280000000000,completion,,,,,,,,,,,,,,,,,,,,,,,,,222222,no,,,,,1,,,,,,,,,,2,,,45906,45865,42612.04,42610,42628.72,45928.74,,,,,,,
Repetition loop,flow.Loop,1_0_5_2,2024-02-22T14:51:00.508Z,,,,,8,,,,,,,,,,,,,,,,,,2,,,,3236.280000000000,completion,,,,,,,,,,,,,,,,,,,,,,,,,222222,no,,,,,,,,,,,,,,,2,,,45906,45865,42612.04,42610,42628.72,45928.74,,,,,,,
Encoding_screen_v1,html.Screen,1_0_5_3_0_0_0_0,2024-02-22T14:51:02.514Z,,,,,9,1,,,,,,,,,,,,,,,,,2,509.02076743830600,,,1999.6000000000000,timeout,NA,NA,,,,,157,296,,,,,,https://memcog.fernuni.ch/studies/prm_wm_s1/images/popcorn.png,https://memcog.fernuni.ch/studies/prm_wm_s1/images/humanskull.png,,,,,178.15726860340700,NaN,NaN,165.4317494174490,,222222,no,254.51038371915300,253.51038371915300,234.51038371915300,233.51038371915300,1,,,,,,,,,,3,4,ongoing,47913,47912.08,45912.06,45908,45928.74,47928.34,9,1,ongoing,,,,
Encoding_screen_v2,html.Screen,1_0_5_3_0_0_0_1,2024-02-22T14:51:02.516Z,,,,,9,1,,,,,,,,,,,,,,,,,2,,,,NaN,skipped,NA,NA,,,,,157,296,,,,,,https://memcog.fernuni.ch/studies/prm_wm_s1/images/popcorn.png,https://memcog.fernuni.ch/studies/prm_wm_s1/images/humanskull.png,,,,,,,,,,222222,no,,,,,1,,,,,,,,,,3,4,ongoing,47914,47912.08,,47914,,47928.34,9,1,ongoing,,,,
Encoding_screen_v3_hat,html.Screen,1_0_5_3_0_0_0_2,2024-02-22T14:51:02.517Z,,,,,9,1,,,,,,,,,,,,,,,,,2,,,,NaN,skipped,NA,NA,,,,,157,296,,,,,,https://memcog.fernuni.ch/studies/prm_wm_s1/images/popcorn.png,https://memcog.fernuni.ch/studies/prm_wm_s1/images/humanskull.png,,,,,,,,,,222222,no,,,,,1,,,,,,,,,,3,4,ongoing,47915,47912.08,,47915,,47928.34,9,1,ongoing,,,,
Encoding_screen_v4_hat,html.Screen,1_0_5_3_0_0_0_3,2024-02-22T14:51:02.517Z,,,,,9,1,,,,,,,,,,,,,,,,,2,,,,NaN,skipped,NA,NA,,,,,157,296,,,,,,https://memcog.fernuni.ch/studies/prm_wm_s1/images/popcorn.png,https://memcog.fernuni.ch/studies/prm_wm_s1/images/humanskull.png,,,,,,,,,,222222,no,,,,,1,,,,,,,,,,3,4,ongoing,47915,47912.08,,47915,,47928.34,9,1,ongoing,,,,
Encoding_screen_v5_wheel,html.Screen,1_0_5_3_0_0_0_4,2024-02-22T14:51:02.518Z,,,,,9,1,,,,,,,,,,,,,,,,,2,,,,NaN,skipped,NA,NA,,,,,157,296,,,,,,https://memcog.fernuni.ch/studies/prm_wm_s1/images/popcorn.png,https://memcog.fernuni.ch/studies/prm_wm_s1/images/humanskull.png,,,,,,,,,,222222,no,,,,,1,,,,,,,,,,3,4,ongoing,47916,47912.08,,47916,,47928.34,9,1,ongoing,,,,
Encoding_screen_v6_wheel,html.Screen,1_0_5_3_0_0_0_5,2024-02-22T14:51:02.519Z,,,,,9,1,,,,,,,,,,,,,,,,,2,,,,NaN,skipped,NA,NA,,,,,157,296,,,,,,https://memcog.fernuni.ch/studies/prm_wm_s1/images/popcorn.png,https://memcog.fernuni.ch/studies/prm_wm_s1/images/humanskull.png,,,,,,,,,,222222,no,,,,,1,,,,,,,,,,3,4,ongoing,47917,47912.08,,47917,,47928.34,9,1,ongoing,,,,
Encoding_sequence,flow.Sequence,1_0_5_3_0_0_0,2024-02-22T14:51:02.519Z,,,,,9,1,,,,,,,,,,,,,,,,,2,,,,1983.3400000000000,completion,NA,NA,,,,,157,296,,,,,,https://memcog.fernuni.ch/studies/prm_wm_s1/images/popcorn.png,https://memcog.fernuni.ch/studies/prm_wm_s1/images/humanskull.png,,,,,,,,,,222222,no,,,,,1,,,,,,,,,,3,4,ongoing,47917,47912.08,45912.06,45908,45928.74,47928.34,9,1,ongoing,,,,
Encoding_loop,flow.Loop,1_0_5_3_0_0,2024-02-22T14:51:02.519Z,,,,,9,,,,,,,,,,,,,,,,,,2,,,,1983.3400000000000,completion,,,,,,,,,,,,,,,,,,,,,,,,,222222,no,,,,,1,,,,,,,,,,3,,,47917,47912.08,45912.06,45908,45928.74,47928.34,,,,,,,
Location_recall,html.Screen,1_0_5_3_0_1_0_0,2024-02-22T14:51:02.519Z,,,,,9,1,,,,,,,,,,,,,,,,,2,,,,NaN,skipped,NA,NA,,,,,157,296,,,,,,https://memcog.fernuni.ch/studies/prm_wm_s1/images/popcorn.png,https://memcog.fernuni.ch/studies/prm_wm_s1/images/humanskull.png,,,,,,,,,,222222,no,,,,,1,,,,,,,,,,3,4,ongoing,47917,47912.08,,47917,,47928.34,9,1,ongoing,,,,
Color_recall_v1,html.Screen,1_0_5_3_0_1_0_1,2024-02-22T14:51:03.734Z,,,,,9,1,,-104.43174941744900,250.5682505825510,71.73478221125490,-71.73478221125490,157,-131.26521778874500,116.1094013107310,,,,,,,,,2,,,,1201.6600000000000,response,NA,NA,,,,,157,296,,,,,,https://memcog.fernuni.ch/studies/prm_wm_s1/images/popcorn.png,https://memcog.fernuni.ch/studies/prm_wm_s1/images/humanskull.png,,,,,,,,,,222222,no,,,,,1,continue,click button,,,,,,,,3,4,ongoing,49132,49130,47912.08,47918,47928.34,49162.08,9,1,ongoing,,,,
Color_recall_v2,html.Screen,1_0_5_3_0_1_0_2,2024-02-22T14:51:03.736Z,,,,,9,1,,,,,,,,,,,,,,,,,2,,,,NaN,skipped,NA,NA,,,,,157,296,,,,,,https://memcog.fernuni.ch/studies/prm_wm_s1/images/popcorn.png,https://memcog.fernuni.ch/studies/prm_wm_s1/images/humanskull.png,,,,,,,,,,222222,no,,,,,1,,,,,,,,,,3,4,ongoing,49133,49130,,49133,,49162.08,9,1,ongoing,,,,
Color_recall_v3_hat,html.Screen,1_0_5_3_0_1_0_3,2024-02-22T14:51:03.736Z,,,,,9,1,,,,,,,,,,,,,,,,,2,,,,NaN,skipped,NA,NA,,,,,157,296,,,,,,https://memcog.fernuni.ch/studies/prm_wm_s1/images/popcorn.png,https://memcog.fernuni.ch/studies/prm_wm_s1/images/humanskull.png,,,,,,,,,,222222,no,,,,,1,,,,,,,,,,3,4,ongoing,49134,49130,,49134,,49162.08,9,1,ongoing,,,,
Color_recall_v4_hat,html.Screen,1_0_5_3_0_1_0_4,2024-02-22T14:51:03.737Z,,,,,9,1,,,,,,,,,,,,,,,,,2,,,,NaN,skipped,NA,NA,,,,,157,296,,,,,,https://memcog.fernuni.ch/studies/prm_wm_s1/images/popcorn.png,https://memcog.fernuni.ch/studies/prm_wm_s1/images/humanskull.png,,,,,,,,,,222222,no,,,,,1,,,,,,,,,,3,4,ongoing,49134,49130,,49134,,49162.08,9,1,ongoing,,,,
Color_recall_v5_wheel,html.Screen,1_0_5_3_0_1_0_5,2024-02-22T14:51:03.737Z,,,,,9,1,,,,,,,,,,,,,,,,,2,,,,NaN,skipped,NA,NA,,,,,157,296,,,,,,https://memcog.fernuni.ch/studies/prm_wm_s1/images/popcorn.png,https://memcog.fernuni.ch/studies/prm_wm_s1/images/humanskull.png,,,,,,,,,,222222,no,,,,,1,,,,,,,,,,3,4,ongoing,49135,49130,,49135,,49162.08,9,1,ongoing,,,,
Color_recall_v6_wheel,html.Screen,1_0_5_3_0_1_0_6,2024-02-22T14:51:03.738Z,,,,,9,1,,,,,,,,,,,,,,,,,2,,,,NaN,skipped,NA,NA,,,,,157,296,,,,,,https://memcog.fernuni.ch/studies/prm_wm_s1/images/popcorn.png,https://memcog.fernuni.ch/studies/prm_wm_s1/images/humanskull.png,,,,,,,,,,222222,no,,,,,1,,,,,,,,,,3,4,ongoing,49135,49130,,49135,,49162.08,9,1,ongoing,,,,
Location_recall,html.Screen,1_0_5_3_0_1_0_7,2024-02-22T14:51:03.739Z,,,,,9,1,,,,,,,,,,,,,,,,,2,,,,NaN,skipped,NA,NA,,,,,157,296,,,,,,https://memcog.fernuni.ch/studies/prm_wm_s1/images/popcorn.png,https://memcog.fernuni.ch/studies/prm_wm_s1/images/humanskull.png,,,,,,,,,,222222,no,,,,,1,,,,,,,,,,3,4,ongoing,49137,49130,,49137,,49162.08,9,1,ongoing,,,,
Recall_sequence,flow.Sequence,1_0_5_3_0_1_0,2024-02-22T14:51:03.739Z,,,,,9,1,,,,,,,,,,,,,,,,,2,,,,1201.6600000000000,completion,NA,NA,,,,,157,296,,,,,,https://memcog.fernuni.ch/studies/prm_wm_s1/images/popcorn.png,https://memcog.fernuni.ch/studies/prm_wm_s1/images/humanskull.png,,,,,,,,,,222222,no,,,,,1,,,,,,,,,,3,4,ongoing,49137,49130,47912.08,47917,47928.34,49162.08,9,1,ongoing,,,,
Recall_loop,flow.Loop,1_0_5_3_0_1,2024-02-22T14:51:03.739Z,,,,,9,,,,,,,,,,,,,,,,,,2,,,,1201.6600000000000,completion,,,,,,,,,,,,,,,,,,,,,,,,,222222,no,,,,,1,,,,,,,,,,3,,,49137,49130,47912.08,47917,47928.34,49162.08,,,,,,,
Set_feedback,html.Screen,1_0_5_3_0_2,2024-02-22T14:51:03.739Z,,,,,9,,,,,,,,,,,,,,,,,,2,,,,NaN,skipped,,,,,,,,,,,,,,,,,,,,,,,,,222222,no,,,,,1,,,,,,,,,,3,,,49137,49130,,49137,,49162.08,,,,,,,
Block_break_screen,html.Screen,1_0_5_3_0_3,2024-02-22T14:51:03.739Z,,,,,9,,,,,,,,,,,,,,,,,,2,,,,NaN,skipped,,,,,,,,,,,,,,,,,,,,,,,,,222222,no,,,,,1,,,,,,,,,,3,,,49138,49130,,49138,,49162.08,,,,,,,
Task_sequence,flow.Sequence,1_0_5_3_0,2024-02-22T14:51:03.740Z,,,,,9,,,,,,,,,,,,,,,,,,2,,,,3201.260000000000,completion,,,,,,,,,,,,,,,,,,,,,,,,,222222,no,,,,,1,,,,,,,,,,3,,,49138,49130,45912.06,45908,45928.74,49162.08,,,,,,,
Repetition loop,flow.Loop,1_0_5_3,2024-02-22T14:51:03.740Z,,,,,9,,,,,,,,,,,,,,,,,,2,,,,3201.260000000000,completion,,,,,,,,,,,,,,,,,,,,,,,,,222222,no,,,,,,,,,,,,,,,3,,,49138,49130,45912.06,45908,45928.74,49162.08,,,,,,,
Encoding_screen_v1,html.Screen,1_0_5_4_0_0_0_0,2024-02-22T14:51:05.748Z,,,,,10,1,,,,,,,,,,,,,,,,,2,509.02076743830600,,,2000.0200000000000,timeout,NA,NA,,,,,264,286,,,,,,https://memcog.fernuni.ch/studies/prm_wm_s1/images/sportsjersey.png,https://memcog.fernuni.ch/studies/prm_wm_s1/images/windmill.png,,,,,178.15726860340700,NaN,NaN,165.4317494174490,,222222,no,254.51038371915300,253.51038371915300,234.51038371915300,233.51038371915300,1,,,,,,,,,,4,5,ongoing,51146,51145.44,49145.4,49143,49162.08,51162.1,10,1,ongoing,,,,
Encoding_screen_v2,html.Screen,1_0_5_4_0_0_0_1,2024-02-22T14:51:05.749Z,,,,,10,1,,,,,,,,,,,,,,,,,2,,,,NaN,skipped,NA,NA,,,,,264,286,,,,,,https://memcog.fernuni.ch/studies/prm_wm_s1/images/sportsjersey.png,https://memcog.fernuni.ch/studies/prm_wm_s1/images/windmill.png,,,,,,,,,,222222,no,,,,,1,,,,,,,,,,4,5,ongoing,51148,51145.44,,51148,,51162.1,10,1,ongoing,,,,
Encoding_screen_v3_hat,html.Screen,1_0_5_4_0_0_0_2,2024-02-22T14:51:05.750Z,,,,,10,1,,,,,,,,,,,,,,,,,2,,,,NaN,skipped,NA,NA,,,,,264,286,,,,,,https://memcog.fernuni.ch/studies/prm_wm_s1/images/sportsjersey.png,https://memcog.fernuni.ch/studies/prm_wm_s1/images/windmill.png,,,,,,,,,,222222,no,,,,,1,,,,,,,,,,4,5,ongoing,51148,51145.44,,51148,,51162.1,10,1,ongoing,,,,
Encoding_screen_v4_hat,html.Screen,1_0_5_4_0_0_0_3,2024-02-22T14:51:05.751Z,,,,,10,1,,,,,,,,,,,,,,,,,2,,,,NaN,skipped,NA,NA,,,,,264,286,,,,,,https://memcog.fernuni.ch/studies/prm_wm_s1/images/sportsjersey.png,https://memcog.fernuni.ch/studies/prm_wm_s1/images/windmill.png,,,,,,,,,,222222,no,,,,,1,,,,,,,,,,4,5,ongoing,51149,51145.44,,51149,,51162.1,10,1,ongoing,,,,
Encoding_screen_v5_wheel,html.Screen,1_0_5_4_0_0_0_4,2024-02-22T14:51:05.752Z,,,,,10,1,,,,,,,,,,,,,,,,,2,,,,NaN,skipped,NA,NA,,,,,264,286,,,,,,https://memcog.fernuni.ch/studies/prm_wm_s1/images/sportsjersey.png,https://memcog.fernuni.ch/studies/prm_wm_s1/images/windmill.png,,,,,,,,,,222222,no,,,,,1,,,,,,,,,,4,5,ongoing,51150,51145.44,,51150,,51162.1,10,1,ongoing,,,,
Encoding_screen_v6_wheel,html.Screen,1_0_5_4_0_0_0_5,2024-02-22T14:51:05.752Z,,,,,10,1,,,,,,,,,,,,,,,,,2,,,,NaN,skipped,NA,NA,,,,,264,286,,,,,,https://memcog.fernuni.ch/studies/prm_wm_s1/images/sportsjersey.png,https://memcog.fernuni.ch/studies/prm_wm_s1/images/windmill.png,,,,,,,,,,222222,no,,,,,1,,,,,,,,,,4,5,ongoing,51150,51145.44,,51150,,51162.1,10,1,ongoing,,,,
Encoding_sequence,flow.Sequence,1_0_5_4_0_0_0,2024-02-22T14:51:05.752Z,,,,,10,1,,,,,,,,,,,,,,,,,2,,,,1983.3600000000000,completion,NA,NA,,,,,264,286,,,,,,https://memcog.fernuni.ch/studies/prm_wm_s1/images/sportsjersey.png,https://memcog.fernuni.ch/studies/prm_wm_s1/images/windmill.png,,,,,,,,,,222222,no,,,,,1,,,,,,,,,,4,5,ongoing,51150,51145.44,49145.4,49142,49162.08,51162.1,10,1,ongoing,,,,
Encoding_loop,flow.Loop,1_0_5_4_0_0,2024-02-22T14:51:05.752Z,,,,,10,,,,,,,,,,,,,,,,,,2,,,,1983.3600000000000,completion,,,,,,,,,,,,,,,,,,,,,,,,,222222,no,,,,,1,,,,,,,,,,4,,,51150,51145.44,49145.4,49142,49162.08,51162.1,,,,,,,
Location_recall,html.Screen,1_0_5_4_0_1_0_0,2024-02-22T14:51:05.753Z,,,,,10,1,,,,,,,,,,,,,,,,,2,,,,NaN,skipped,NA,NA,,,,,264,286,,,,,,https://memcog.fernuni.ch/studies/prm_wm_s1/images/sportsjersey.png,https://memcog.fernuni.ch/studies/prm_wm_s1/images/windmill.png,,,,,,,,,,222222,no,,,,,1,,,,,,,,,,4,5,ongoing,51150,51145.44,,51150,,51162.1,10,1,ongoing,,,,
Color_recall_v1,html.Screen,1_0_5_4_0_1_0_1,2024-02-22T14:51:07.220Z,,,,,10,1,,-149.4317494174490,70.56825058255070,61.36357970360500,-61.36357970360500,264,-34.63642029639500,170.64232329370800,,,,,,,,,2,,,,1450.9000000000000,response,NA,NA,,,,,264,286,,,,,,https://memcog.fernuni.ch/studies/prm_wm_s1/images/sportsjersey.png,https://memcog.fernuni.ch/studies/prm_wm_s1/images/windmill.png,,,,,,,,,,222222,no,,,,,1,continue,click button,,,,,,,,4,5,ongoing,52618,52613,51145.44,51151,51162.1,52644.76,10,1,ongoing,,,,
Color_recall_v2,html.Screen,1_0_5_4_0_1_0_2,2024-02-22T14:51:07.221Z,,,,,10,1,,,,,,,,,,,,,,,,,2,,,,NaN,skipped,NA,NA,,,,,264,286,,,,,,https://memcog.fernuni.ch/studies/prm_wm_s1/images/sportsjersey.png,https://memcog.fernuni.ch/studies/prm_wm_s1/images/windmill.png,,,,,,,,,,222222,no,,,,,1,,,,,,,,,,4,5,ongoing,52619,52613,,52619,,52644.76,10,1,ongoing,,,,
Color_recall_v3_hat,html.Screen,1_0_5_4_0_1_0_3,2024-02-22T14:51:07.223Z,,,,,10,1,,,,,,,,,,,,,,,,,2,,,,NaN,skipped,NA,NA,,,,,264,286,,,,,,https://memcog.fernuni.ch/studies/prm_wm_s1/images/sportsjersey.png,https://memcog.fernuni.ch/studies/prm_wm_s1/images/windmill.png,,,,,,,,,,222222,no,,,,,1,,,,,,,,,,4,5,ongoing,52620,52613,,52620,,52644.76,10,1,ongoing,,,,
Color_recall_v4_hat,html.Screen,1_0_5_4_0_1_0_4,2024-02-22T14:51:07.223Z,,,,,10,1,,,,,,,,,,,,,,,,,2,,,,NaN,skipped,NA,NA,,,,,264,286,,,,,,https://memcog.fernuni.ch/studies/prm_wm_s1/images/sportsjersey.png,https://memcog.fernuni.ch/studies/prm_wm_s1/images/windmill.png,,,,,,,,,,222222,no,,,,,1,,,,,,,,,,4,5,ongoing,52621,52613,,52620,,52644.76,10,1,ongoing,,,,
Color_recall_v5_wheel,html.Screen,1_0_5_4_0_1_0_5,2024-02-22T14:51:07.224Z,,,,,10,1,,,,,,,,,,,,,,,,,2,,,,NaN,skipped,NA,NA,,,,,264,286,,,,,,https://memcog.fernuni.ch/studies/prm_wm_s1/images/sportsjersey.png,https://memcog.fernuni.ch/studies/prm_wm_s1/images/windmill.png,,,,,,,,,,222222,no,,,,,1,,,,,,,,,,4,5,ongoing,52621,52613,,52621,,52644.76,10,1,ongoing,,,,
Color_recall_v6_wheel,html.Screen,1_0_5_4_0_1_0_6,2024-02-22T14:51:07.225Z,,,,,10,1,,,,,,,,,,,,,,,,,2,,,,NaN,skipped,NA,NA,,,,,264,286,,,,,,https://memcog.fernuni.ch/studies/prm_wm_s1/images/sportsjersey.png,https://memcog.fernuni.ch/studies/prm_wm_s1/images/windmill.png,,,,,,,,,,222222,no,,,,,1,,,,,,,,,,4,5,ongoing,52622,52613,,52622,,52644.76,10,1,ongoing,,,,
Location_recall,html.Screen,1_0_5_4_0_1_0_7,2024-02-22T14:51:07.225Z,,,,,10,1,,,,,,,,,,,,,,,,,2,,,,NaN,skipped,NA,NA,,,,,264,286,,,,,,https://memcog.fernuni.ch/studies/prm_wm_s1/images/sportsjersey.png,https://memcog.fernuni.ch/studies/prm_wm_s1/images/windmill.png,,,,,,,,,,222222,no,,,,,1,,,,,,,,,,4,5,ongoing,52622,52613,,52622,,52644.76,10,1,ongoing,,,,
Recall_sequence,flow.Sequence,1_0_5_4_0_1_0,2024-02-22T14:51:07.225Z,,,,,10,1,,,,,,,,,,,,,,,,,2,,,,1450.9000000000000,completion,NA,NA,,,,,264,286,,,,,,https://memcog.fernuni.ch/studies/prm_wm_s1/images/sportsjersey.png,https://memcog.fernuni.ch/studies/prm_wm_s1/images/windmill.png,,,,,,,,,,222222,no,,,,,1,,,,,,,,,,4,5,ongoing,52622,52613,51145.44,51150,51162.1,52644.76,10,1,ongoing,,,,
Recall_loop,flow.Loop,1_0_5_4_0_1,2024-02-22T14:51:07.225Z,,,,,10,,,,,,,,,,,,,,,,,,2,,,,1450.9000000000000,completion,,,,,,,,,,,,,,,,,,,,,,,,,222222,no,,,,,1,,,,,,,,,,4,,,52622,52613,51145.44,51150,51162.1,52644.76,,,,,,,
Set_feedback,html.Screen,1_0_5_4_0_2,2024-02-22T14:51:07.225Z,,,,,10,,,,,,,,,,,,,,,,,,2,,,,NaN,skipped,,,,,,,,,,,,,,,,,,,,,,,,,222222,no,,,,,1,,,,,,,,,,4,,,52623,52613,,52623,,52644.76,,,,,,,
Block_break_screen,html.Screen,1_0_5_4_0_3,2024-02-22T14:51:07.226Z,,,,,10,,,,,,,,,,,,,,,,,,2,,,,NaN,skipped,,,,,,,,,,,,,,,,,,,,,,,,,222222,no,,,,,1,,,,,,,,,,4,,,52623,52613,,52623,,52644.76,,,,,,,
Task_sequence,flow.Sequence,1_0_5_4_0,2024-02-22T14:51:07.226Z,,,,,10,,,,,,,,,,,,,,,,,,2,,,,3450.9200000000000,completion,,,,,,,,,,,,,,,,,,,,,,,,,222222,no,,,,,1,,,,,,,,,,4,,,52623,52613,49145.4,49142,49162.08,52644.76,,,,,,,
Repetition loop,flow.Loop,1_0_5_4,2024-02-22T14:51:07.226Z,,,,,10,,,,,,,,,,,,,,,,,,2,,,,3450.9200000000000,completion,,,,,,,,,,,,,,,,,,,,,,,,,222222,no,,,,,,,,,,,,,,,4,,,52624,52613,49145.4,49142,49162.08,52644.76,,,,,,,
Encoding_screen_v1,html.Screen,1_0_5_5_0_0_0_0,2024-02-22T14:51:09.231Z,,,,,11,1,,,,,,,,,,,,,,,,,2,509.02076743830600,,,2000.700000000000,timeout,NA,NA,,,,,138,165,,,,,,https://memcog.fernuni.ch/studies/prm_wm_s1/images/snowman.png,https://memcog.fernuni.ch/studies/prm_wm_s1/images/tankertruck.png,,,,,178.15726860340700,NaN,NaN,165.4317494174490,,222222,no,254.51038371915300,253.51038371915300,234.51038371915300,233.51038371915300,1,,,,,,,,,,5,6,ongoing,54630,54628.8,52628.78,52629,52644.76,54645.46,11,1,ongoing,,,,
Encoding_screen_v2,html.Screen,1_0_5_5_0_0_0_1,2024-02-22T14:51:09.235Z,,,,,11,1,,,,,,,,,,,,,,,,,2,,,,NaN,skipped,NA,NA,,,,,138,165,,,,,,https://memcog.fernuni.ch/studies/prm_wm_s1/images/snowman.png,https://memcog.fernuni.ch/studies/prm_wm_s1/images/tankertruck.png,,,,,,,,,,222222,no,,,,,1,,,,,,,,,,5,6,ongoing,54632,54628.8,,54632,,54645.46,11,1,ongoing,,,,
Encoding_screen_v3_hat,html.Screen,1_0_5_5_0_0_0_2,2024-02-22T14:51:09.236Z,,,,,11,1,,,,,,,,,,,,,,,,,2,,,,NaN,skipped,NA,NA,,,,,138,165,,,,,,https://memcog.fernuni.ch/studies/prm_wm_s1/images/snowman.png,https://memcog.fernuni.ch/studies/prm_wm_s1/images/tankertruck.png,,,,,,,,,,222222,no,,,,,1,,,,,,,,,,5,6,ongoing,54633,54628.8,,54633,,54645.46,11,1,ongoing,,,,
Encoding_screen_v4_hat,html.Screen,1_0_5_5_0_0_0_3,2024-02-22T14:51:09.237Z,,,,,11,1,,,,,,,,,,,,,,,,,2,,,,NaN,skipped,NA,NA,,,,,138,165,,,,,,https://memcog.fernuni.ch/studies/prm_wm_s1/images/snowman.png,https://memcog.fernuni.ch/studies/prm_wm_s1/images/tankertruck.png,,,,,,,,,,222222,no,,,,,1,,,,,,,,,,5,6,ongoing,54634,54628.8,,54634,,54645.46,11,1,ongoing,,,,
Encoding_screen_v5_wheel,html.Screen,1_0_5_5_0_0_0_4,2024-02-22T14:51:09.238Z,,,,,11,1,,,,,,,,,,,,,,,,,2,,,,NaN,skipped,NA,NA,,,,,138,165,,,,,,https://memcog.fernuni.ch/studies/prm_wm_s1/images/snowman.png,https://memcog.fernuni.ch/studies/prm_wm_s1/images/tankertruck.png,,,,,,,,,,222222,no,,,,,1,,,,,,,,,,5,6,ongoing,54635,54628.8,,54635,,54645.46,11,1,ongoing,,,,
Encoding_screen_v6_wheel,html.Screen,1_0_5_5_0_0_0_5,2024-02-22T14:51:09.238Z,,,,,11,1,,,,,,,,,,,,,,,,,2,,,,NaN,skipped,NA,NA,,,,,138,165,,,,,,https://memcog.fernuni.ch/studies/prm_wm_s1/images/snowman.png,https://memcog.fernuni.ch/studies/prm_wm_s1/images/tankertruck.png,,,,,,,,,,222222,no,,,,,1,,,,,,,,,,5,6,ongoing,54636,54628.8,,54635,,54645.46,11,1,ongoing,,,,
Encoding_sequence,flow.Sequence,1_0_5_5_0_0_0,2024-02-22T14:51:09.238Z,,,,,11,1,,,,,,,,,,,,,,,,,2,,,,1984.0400000000000,completion,NA,NA,,,,,138,165,,,,,,https://memcog.fernuni.ch/studies/prm_wm_s1/images/snowman.png,https://memcog.fernuni.ch/studies/prm_wm_s1/images/tankertruck.png,,,,,,,,,,222222,no,,,,,1,,,,,,,,,,5,6,ongoing,54636,54628.8,52628.78,52629,52644.76,54645.46,11,1,ongoing,,,,
Encoding_loop,flow.Loop,1_0_5_5_0_0,2024-02-22T14:51:09.238Z,,,,,11,,,,,,,,,,,,,,,,,,2,,,,1984.0400000000000,completion,,,,,,,,,,,,,,,,,,,,,,,,,222222,no,,,,,1,,,,,,,,,,5,,,54636,54628.8,52628.78,52629,52644.76,54645.46,,,,,,,
Location_recall,html.Screen,1_0_5_5_0_1_0_0,2024-02-22T14:51:09.239Z,,,,,11,1,,,,,,,,,,,,,,,,,2,,,,NaN,skipped,NA,NA,,,,,138,165,,,,,,https://memcog.fernuni.ch/studies/prm_wm_s1/images/snowman.png,https://memcog.fernuni.ch/studies/prm_wm_s1/images/tankertruck.png,,,,,,,,,,222222,no,,,,,1,,,,,,,,,,5,6,ongoing,54637,54628.8,,54637,,54645.46,11,1,ongoing,,,,
Color_recall_v1,html.Screen,1_0_5_5_0_1_0_1,2024-02-22T14:51:17.169Z,,,,,11,1,,237.5682505825510,282.5682505825510,68.85717500376630,68.85717500376630,138,69.14282499623370,19.198149999664800,,,,,,,,,2,,,,7917.540000000000,response,NA,NA,,,,,138,165,,,,,,https://memcog.fernuni.ch/studies/prm_wm_s1/images/snowman.png,https://memcog.fernuni.ch/studies/prm_wm_s1/images/tankertruck.png,,,,,,,,,,222222,no,,,,,1,continue,click button,,,,,,,,5,6,ongoing,62566,62563,54628.8,54637,54645.46,62595.08,11,1,ongoing,,,,
Color_recall_v2,html.Screen,1_0_5_5_0_1_0_2,2024-02-22T14:51:17.172Z,,,,,11,1,,,,,,,,,,,,,,,,,2,,,,NaN,skipped,NA,NA,,,,,138,165,,,,,,https://memcog.fernuni.ch/studies/prm_wm_s1/images/snowman.png,https://memcog.fernuni.ch/studies/prm_wm_s1/images/tankertruck.png,,,,,,,,,,222222,no,,,,,1,,,,,,,,,,5,6,ongoing,62569,62563,,62569,,62595.08,11,1,ongoing,,,,
Color_recall_v3_hat,html.Screen,1_0_5_5_0_1_0_3,2024-02-22T14:51:17.173Z,,,,,11,1,,,,,,,,,,,,,,,,,2,,,,NaN,skipped,NA,NA,,,,,138,165,,,,,,https://memcog.fernuni.ch/studies/prm_wm_s1/images/snowman.png,https://memcog.fernuni.ch/studies/prm_wm_s1/images/tankertruck.png,,,,,,,,,,222222,no,,,,,1,,,,,,,,,,5,6,ongoing,62570,62563,,62570,,62595.08,11,1,ongoing,,,,
Color_recall_v4_hat,html.Screen,1_0_5_5_0_1_0_4,2024-02-22T14:51:17.174Z,,,,,11,1,,,,,,,,,,,,,,,,,2,,,,NaN,skipped,NA,NA,,,,,138,165,,,,,,https://memcog.fernuni.ch/studies/prm_wm_s1/images/snowman.png,https://memcog.fernuni.ch/studies/prm_wm_s1/images/tankertruck.png,,,,,,,,,,222222,no,,,,,1,,,,,,,,,,5,6,ongoing,62571,62563,,62571,,62595.08,11,1,ongoing,,,,
Color_recall_v5_wheel,html.Screen,1_0_5_5_0_1_0_5,2024-02-22T14:51:17.174Z,,,,,11,1,,,,,,,,,,,,,,,,,2,,,,NaN,skipped,NA,NA,,,,,138,165,,,,,,https://memcog.fernuni.ch/studies/prm_wm_s1/images/snowman.png,https://memcog.fernuni.ch/studies/prm_wm_s1/images/tankertruck.png,,,,,,,,,,222222,no,,,,,1,,,,,,,,,,5,6,ongoing,62571,62563,,62571,,62595.08,11,1,ongoing,,,,
Color_recall_v6_wheel,html.Screen,1_0_5_5_0_1_0_6,2024-02-22T14:51:17.174Z,,,,,11,1,,,,,,,,,,,,,,,,,2,,,,NaN,skipped,NA,NA,,,,,138,165,,,,,,https://memcog.fernuni.ch/studies/prm_wm_s1/images/snowman.png,https://memcog.fernuni.ch/studies/prm_wm_s1/images/tankertruck.png,,,,,,,,,,222222,no,,,,,1,,,,,,,,,,5,6,ongoing,62572,62563,,62572,,62595.08,11,1,ongoing,,,,
Location_recall,html.Screen,1_0_5_5_0_1_0_7,2024-02-22T14:51:17.174Z,,,,,11,1,,,,,,,,,,,,,,,,,2,,,,NaN,skipped,NA,NA,,,,,138,165,,,,,,https://memcog.fernuni.ch/studies/prm_wm_s1/images/snowman.png,https://memcog.fernuni.ch/studies/prm_wm_s1/images/tankertruck.png,,,,,,,,,,222222,no,,,,,1,,,,,,,,,,5,6,ongoing,62572,62563,,62572,,62595.08,11,1,ongoing,,,,
Recall_sequence,flow.Sequence,1_0_5_5_0_1_0,2024-02-22T14:51:17.175Z,,,,,11,1,,,,,,,,,,,,,,,,,2,,,,7917.540000000000,completion,NA,NA,,,,,138,165,,,,,,https://memcog.fernuni.ch/studies/prm_wm_s1/images/snowman.png,https://memcog.fernuni.ch/studies/prm_wm_s1/images/tankertruck.png,,,,,,,,,,222222,no,,,,,1,,,,,,,,,,5,6,ongoing,62572,62563,54628.8,54636,54645.46,62595.08,11,1,ongoing,,,,
Recall_loop,flow.Loop,1_0_5_5_0_1,2024-02-22T14:51:17.176Z,,,,,11,,,,,,,,,,,,,,,,,,2,,,,7917.540000000000,completion,,,,,,,,,,,,,,,,,,,,,,,,,222222,no,,,,,1,,,,,,,,,,5,,,62572,62563,54628.8,54636,54645.46,62595.08,,,,,,,
Set_feedback,html.Screen,1_0_5_5_0_2,2024-02-22T14:51:17.176Z,,,,,11,,,,,,,,,,,,,,,,,,2,,,,NaN,skipped,,,,,,,,,,,,,,,,,,,,,,,,,222222,no,,,,,1,,,,,,,,,,5,,,62573,62563,,62573,,62595.08,,,,,,,
Block_break_screen,html.Screen,1_0_5_5_0_3,2024-02-22T14:51:17.176Z,,,,,11,,,,,,,,,,,,,,,,,,2,,,,NaN,skipped,,,,,,,,,,,,,,,,,,,,,,,,,222222,no,,,,,1,,,,,,,,,,5,,,62574,62563,,62574,,62595.08,,,,,,,
Task_sequence,flow.Sequence,1_0_5_5_0,2024-02-22T14:51:17.176Z,,,,,11,,,,,,,,,,,,,,,,,,2,,,,9918.240000000000,completion,,,,,,,,,,,,,,,,,,,,,,,,,222222,no,,,,,1,,,,,,,,,,5,,,62574,62563,52628.78,52629,52644.76,62595.08,,,,,,,
Repetition loop,flow.Loop,1_0_5_5,2024-02-22T14:51:17.176Z,,,,,11,,,,,,,,,,,,,,,,,,2,,,,9918.240000000000,completion,,,,,,,,,,,,,,,,,,,,,,,,,222222,no,,,,,,,,,,,,,,,5,,,62574,62563,52628.78,52629,52644.76,62595.08,,,,,,,
Encoding_screen_v1,html.Screen,1_0_5_6_0_0_0_0,2024-02-22T14:51:19.182Z,,,,,12,1,,,,,,,,,,,,,,,,,2,509.02076743830600,,,2000.440000000000,timeout,NA,NA,,,,,84,315,,,,,,https://memcog.fernuni.ch/studies/prm_wm_s1/images/pipe.png,https://memcog.fernuni.ch/studies/prm_wm_s1/images/doubledoors.png,,,,,178.15726860340700,NaN,NaN,165.4317494174490,,222222,no,254.51038371915300,253.51038371915300,234.51038371915300,233.51038371915300,1,,,,,,,,,,6,7,ongoing,64580,64578.84,62578.82,62581,62595.08,64595.52,12,1,ongoing,,,,
Encoding_screen_v2,html.Screen,1_0_5_6_0_0_0_1,2024-02-22T14:51:19.185Z,,,,,12,1,,,,,,,,,,,,,,,,,2,,,,NaN,skipped,NA,NA,,,,,84,315,,,,,,https://memcog.fernuni.ch/studies/prm_wm_s1/images/pipe.png,https://memcog.fernuni.ch/studies/prm_wm_s1/images/doubledoors.png,,,,,,,,,,222222,no,,,,,1,,,,,,,,,,6,7,ongoing,64583,64578.84,,64582,,64595.52,12,1,ongoing,,,,
Encoding_screen_v3_hat,html.Screen,1_0_5_6_0_0_0_2,2024-02-22T14:51:19.186Z,,,,,12,1,,,,,,,,,,,,,,,,,2,,,,NaN,skipped,NA,NA,,,,,84,315,,,,,,https://memcog.fernuni.ch/studies/prm_wm_s1/images/pipe.png,https://memcog.fernuni.ch/studies/prm_wm_s1/images/doubledoors.png,,,,,,,,,,222222,no,,,,,1,,,,,,,,,,6,7,ongoing,64584,64578.84,,64584,,64595.52,12,1,ongoing,,,,
Encoding_screen_v4_hat,html.Screen,1_0_5_6_0_0_0_3,2024-02-22T14:51:19.187Z,,,,,12,1,,,,,,,,,,,,,,,,,2,,,,NaN,skipped,NA,NA,,,,,84,315,,,,,,https://memcog.fernuni.ch/studies/prm_wm_s1/images/pipe.png,https://memcog.fernuni.ch/studies/prm_wm_s1/images/doubledoors.png,,,,,,,,,,222222,no,,,,,1,,,,,,,,,,6,7,ongoing,64585,64578.84,,64585,,64595.52,12,1,ongoing,,,,
Encoding_screen_v5_wheel,html.Screen,1_0_5_6_0_0_0_4,2024-02-22T14:51:19.188Z,,,,,12,1,,,,,,,,,,,,,,,,,2,,,,NaN,skipped,NA,NA,,,,,84,315,,,,,,https://memcog.fernuni.ch/studies/prm_wm_s1/images/pipe.png,https://memcog.fernuni.ch/studies/prm_wm_s1/images/doubledoors.png,,,,,,,,,,222222,no,,,,,1,,,,,,,,,,6,7,ongoing,64586,64578.84,,64586,,64595.52,12,1,ongoing,,,,
Encoding_screen_v6_wheel,html.Screen,1_0_5_6_0_0_0_5,2024-02-22T14:51:19.189Z,,,,,12,1,,,,,,,,,,,,,,,,,2,,,,NaN,skipped,NA,NA,,,,,84,315,,,,,,https://memcog.fernuni.ch/studies/prm_wm_s1/images/pipe.png,https://memcog.fernuni.ch/studies/prm_wm_s1/images/doubledoors.png,,,,,,,,,,222222,no,,,,,1,,,,,,,,,,6,7,ongoing,64587,64578.84,,64587,,64595.52,12,1,ongoing,,,,
Encoding_sequence,flow.Sequence,1_0_5_6_0_0_0,2024-02-22T14:51:19.189Z,,,,,12,1,,,,,,,,,,,,,,,,,2,,,,1983.7599999999900,completion,NA,NA,,,,,84,315,,,,,,https://memcog.fernuni.ch/studies/prm_wm_s1/images/pipe.png,https://memcog.fernuni.ch/studies/prm_wm_s1/images/doubledoors.png,,,,,,,,,,222222,no,,,,,1,,,,,,,,,,6,7,ongoing,64587,64578.84,62578.82,62580,62595.08,64595.52,12,1,ongoing,,,,
Encoding_loop,flow.Loop,1_0_5_6_0_0,2024-02-22T14:51:19.189Z,,,,,12,,,,,,,,,,,,,,,,,,2,,,,1983.7599999999900,completion,,,,,,,,,,,,,,,,,,,,,,,,,222222,no,,,,,1,,,,,,,,,,6,,,64587,64578.84,62578.82,62580,62595.08,64595.52,,,,,,,
Location_recall,html.Screen,1_0_5_6_0_1_0_0,2024-02-22T14:51:19.191Z,,,,,12,1,,,,,,,,,,,,,,,,,2,,,,NaN,skipped,NA,NA,,,,,84,315,,,,,,https://memcog.fernuni.ch/studies/prm_wm_s1/images/pipe.png,https://memcog.fernuni.ch/studies/prm_wm_s1/images/doubledoors.png,,,,,,,,,,222222,no,,,,,1,,,,,,,,,,6,7,ongoing,64588,64578.84,,64588,,64595.52,12,1,ongoing,,,,
Color_recall_v1,html.Screen,1_0_5_6_0_1_0_1,2024-02-22T14:51:21.419Z,,,,,12,1,,301.5682505825510,201.5682505825510,29.508178031666400,29.508178031666400,84,54.491821968333600,20.73305031153320,,,,,,,,,2,,,,2218.480000000000,response,NA,NA,,,,,84,315,,,,,,https://memcog.fernuni.ch/studies/prm_wm_s1/images/pipe.png,https://memcog.fernuni.ch/studies/prm_wm_s1/images/doubledoors.png,,,,,,,,,,222222,no,,,,,1,continue,click button,,,,,,,,6,7,ongoing,66816,66814,64578.84,64589,64595.52,66845.52,12,1,ongoing,,,,
Color_recall_v2,html.Screen,1_0_5_6_0_1_0_2,2024-02-22T14:51:21.420Z,,,,,12,1,,,,,,,,,,,,,,,,,2,,,,NaN,skipped,NA,NA,,,,,84,315,,,,,,https://memcog.fernuni.ch/studies/prm_wm_s1/images/pipe.png,https://memcog.fernuni.ch/studies/prm_wm_s1/images/doubledoors.png,,,,,,,,,,222222,no,,,,,1,,,,,,,,,,6,7,ongoing,66817,66814,,66817,,66845.52,12,1,ongoing,,,,
Color_recall_v3_hat,html.Screen,1_0_5_6_0_1_0_3,2024-02-22T14:51:21.420Z,,,,,12,1,,,,,,,,,,,,,,,,,2,,,,NaN,skipped,NA,NA,,,,,84,315,,,,,,https://memcog.fernuni.ch/studies/prm_wm_s1/images/pipe.png,https://memcog.fernuni.ch/studies/prm_wm_s1/images/doubledoors.png,,,,,,,,,,222222,no,,,,,1,,,,,,,,,,6,7,ongoing,66818,66814,,66818,,66845.52,12,1,ongoing,,,,
Color_recall_v4_hat,html.Screen,1_0_5_6_0_1_0_4,2024-02-22T14:51:21.421Z,,,,,12,1,,,,,,,,,,,,,,,,,2,,,,NaN,skipped,NA,NA,,,,,84,315,,,,,,https://memcog.fernuni.ch/studies/prm_wm_s1/images/pipe.png,https://memcog.fernuni.ch/studies/prm_wm_s1/images/doubledoors.png,,,,,,,,,,222222,no,,,,,1,,,,,,,,,,6,7,ongoing,66819,66814,,66819,,66845.52,12,1,ongoing,,,,
Color_recall_v5_wheel,html.Screen,1_0_5_6_0_1_0_5,2024-02-22T14:51:21.421Z,,,,,12,1,,,,,,,,,,,,,,,,,2,,,,NaN,skipped,NA,NA,,,,,84,315,,,,,,https://memcog.fernuni.ch/studies/prm_wm_s1/images/pipe.png,https://memcog.fernuni.ch/studies/prm_wm_s1/images/doubledoors.png,,,,,,,,,,222222,no,,,,,1,,,,,,,,,,6,7,ongoing,66819,66814,,66819,,66845.52,12,1,ongoing,,,,
Color_recall_v6_wheel,html.Screen,1_0_5_6_0_1_0_6,2024-02-22T14:51:21.422Z,,,,,12,1,,,,,,,,,,,,,,,,,2,,,,NaN,skipped,NA,NA,,,,,84,315,,,,,,https://memcog.fernuni.ch/studies/prm_wm_s1/images/pipe.png,https://memcog.fernuni.ch/studies/prm_wm_s1/images/doubledoors.png,,,,,,,,,,222222,no,,,,,1,,,,,,,,,,6,7,ongoing,66820,66814,,66820,,66845.52,12,1,ongoing,,,,
Location_recall,html.Screen,1_0_5_6_0_1_0_7,2024-02-22T14:51:21.423Z,,,,,12,1,,,,,,,,,,,,,,,,,2,,,,NaN,skipped,NA,NA,,,,,84,315,,,,,,https://memcog.fernuni.ch/studies/prm_wm_s1/images/pipe.png,https://memcog.fernuni.ch/studies/prm_wm_s1/images/doubledoors.png,,,,,,,,,,222222,no,,,,,1,,,,,,,,,,6,7,ongoing,66820,66814,,66820,,66845.52,12,1,ongoing,,,,
Recall_sequence,flow.Sequence,1_0_5_6_0_1_0,2024-02-22T14:51:21.423Z,,,,,12,1,,,,,,,,,,,,,,,,,2,,,,2218.480000000000,completion,NA,NA,,,,,84,315,,,,,,https://memcog.fernuni.ch/studies/prm_wm_s1/images/pipe.png,https://memcog.fernuni.ch/studies/prm_wm_s1/images/doubledoors.png,,,,,,,,,,222222,no,,,,,1,,,,,,,,,,6,7,ongoing,66820,66814,64578.84,64587,64595.52,66845.52,12,1,ongoing,,,,
Recall_loop,flow.Loop,1_0_5_6_0_1,2024-02-22T14:51:21.423Z,,,,,12,,,,,,,,,,,,,,,,,,2,,,,2218.480000000000,completion,,,,,,,,,,,,,,,,,,,,,,,,,222222,no,,,,,1,,,,,,,,,,6,,,66820,66814,64578.84,64587,64595.52,66845.52,,,,,,,
Set_feedback,html.Screen,1_0_5_6_0_2,2024-02-22T14:51:21.423Z,,,,,12,,,,,,,,,,,,,,,,,,2,,,,NaN,skipped,,,,,,,,,,,,,,,,,,,,,,,,,222222,no,,,,,1,,,,,,,,,,6,,,66821,66814,,66821,,66845.52,,,,,,,
Block_break_screen,html.Screen,1_0_5_6_0_3,2024-02-22T14:51:21.424Z,,,,,12,,,,,,,,,,,,,,,,,,2,,,,NaN,skipped,,,,,,,,,,,,,,,,,,,,,,,,,222222,no,,,,,1,,,,,,,,,,6,,,66822,66814,,66822,,66845.52,,,,,,,
